ax,ay,az,gx,gy,gz,mx,my,mz
0.234644,-0.186757,-8.839843,0.001321,0.000423,-0.000236,-32.154877,-6.113526,35.247368
0.234644,-0.186757,-8.839843,0.001321,0.000423,-0.000236,-32.154877,-6.113526,35.247368
0.229855,-0.186757,-8.844632,0.000522,0.000557,-0.000103,-32.154877,-6.113526,35.247368
0.229855,-0.186757,-8.844632,0.000522,0.000557,-0.000103,-32.154877,-6.113526,35.247368
0.234644,-0.201123,-8.835054,-0.000011,0.000157,-0.000103,-32.154877,-6.113526,35.247368
0.234644,-0.201123,-8.835054,-0.000011,0.000157,-0.000103,-32.154877,-6.113526,35.247368
0.225066,-0.181969,-8.825478,0.000256,-0.000509,0.000430,-32.154877,-6.113526,35.247368
0.229855,-0.191546,-8.844632,-0.000277,-0.000242,-0.000768,-30.189857,-7.012574,34.729023
0.229855,-0.191546,-8.844632,-0.000277,-0.000242,-0.000768,-30.189857,-7.012574,34.729023
0.229855,-0.196335,-8.849421,0.001055,0.000157,-0.000236,-30.189857,-7.012574,34.729023
0.229855,-0.196335,-8.849421,0.001055,0.000157,-0.000236,-30.189857,-7.012574,34.729023
0.234644,-0.191546,-8.849421,-0.000144,0.001089,-0.000103,-30.189857,-7.012574,34.729023
0.234644,-0.191546,-8.849421,-0.000144,0.001089,-0.000103,-30.189857,-7.012574,34.729023
0.239432,-0.196335,-8.830266,0.000123,0.000557,0.000563,-30.189857,-7.012574,34.729023
0.239432,-0.196335,-8.830266,0.000123,0.000557,0.000563,-30.189857,-7.012574,34.729023
0.249010,-0.196335,-8.868575,0.000788,0.001356,0.000430,-30.189857,-7.012574,34.729023
0.249010,-0.196335,-8.868575,0.000788,0.001356,0.000430,-30.189857,-7.012574,34.729023
0.239432,-0.186757,-8.849421,-0.000144,0.000024,0.000830,-30.189857,-7.012574,34.729023
0.239432,-0.186757,-8.849421,-0.000144,0.000024,0.000830,-30.189857,-7.012574,34.729023
0.225066,-0.186757,-8.835054,0.000788,0.000290,-0.000369,-30.904409,-7.372194,34.037899
0.229855,-0.205912,-8.835054,0.000389,0.000423,-0.000369,-30.904409,-7.372194,34.037899
0.229855,-0.205912,-8.835054,0.000389,0.000423,-0.000369,-30.904409,-7.372194,34.037899
0.229855,-0.177180,-8.820688,0.000123,-0.000109,0.000164,-30.904409,-7.372194,34.037899
0.229855,-0.177180,-8.820688,0.000123,-0.000109,0.000164,-30.904409,-7.372194,34.037899
0.239432,-0.201123,-8.844632,0.000256,-0.000242,0.000963,-30.904409,-7.372194,34.037899
0.239432,-0.201123,-8.844632,0.000256,-0.000242,0.000963,-30.904409,-7.372194,34.037899
0.239432,-0.201123,-8.825478,0.000655,-0.000242,0.001362,-30.904409,-7.372194,34.037899
0.239432,-0.201123,-8.825478,0.000655,-0.000242,0.001362,-30.904409,-7.372194,34.037899
0.239432,-0.191546,-8.825478,-0.000410,0.000024,0.000430,-30.904409,-7.372194,34.037899
0.239432,-0.191546,-8.825478,-0.000410,0.000024,0.000430,-30.904409,-7.372194,34.037899
0.234644,-0.186757,-8.830266,0.000123,-0.000242,0.000563,-30.904409,-7.372194,34.037899
0.210700,-0.177180,-8.820688,-0.000277,0.000423,0.000031,-31.261686,-8.091432,35.765713
0.210700,-0.177180,-8.820688,-0.000277,0.000423,0.000031,-31.261686,-8.091432,35.765713
0.234644,-0.191546,-8.815900,0.000256,0.000690,0.000031,-31.261686,-8.091432,35.765713
0.234644,-0.191546,-8.815900,0.000256,0.000690,0.000031,-31.261686,-8.091432,35.765713
0.229855,-0.186757,-8.820688,-0.000011,-0.000376,0.000164,-31.261686,-8.091432,35.765713
0.229855,-0.186757,-8.820688,-0.000011,-0.000376,0.000164,-31.261686,-8.091432,35.765713
0.234644,-0.205912,-8.825478,-0.000011,0.000956,0.000297,-31.261686,-8.091432,35.765713
0.234644,-0.205912,-8.825478,-0.000011,0.000956,0.000297,-31.261686,-8.091432,35.765713
0.253798,-0.186757,-8.839843,0.000256,0.000423,0.000031,-31.261686,-8.091432,35.765713
0.253798,-0.186757,-8.839843,0.000256,0.000423,0.000031,-31.261686,-8.091432,35.765713
0.234644,-0.181969,-8.820688,0.000788,0.000024,0.000031,-31.261686,-8.091432,35.765713
0.234644,-0.181969,-8.820688,0.000788,0.000024,0.000031,-31.261686,-8.091432,35.765713
0.234644,-0.196335,-8.844632,-0.000144,0.000157,0.000563,-30.368494,-7.192384,34.901806
0.234644,-0.186757,-8.839843,-0.000144,0.000157,-0.000768,-30.368494,-7.192384,34.901806
0.234644,-0.186757,-8.839843,-0.000144,0.000157,-0.000768,-30.368494,-7.192384,34.901806
0.234644,-0.186757,-8.815900,-0.000144,0.000290,-0.000369,-30.368494,-7.192384,34.901806
0.234644,-0.186757,-8.815900,-0.000144,0.000290,-0.000369,-30.368494,-7.192384,34.901806
0.234644,-0.191546,-8.839843,-0.001875,0.000557,-0.000369,-30.368494,-7.192384,34.901806
0.234644,-0.191546,-8.839843,-0.001875,0.000557,-0.000369,-30.368494,-7.192384,34.901806
0.229855,-0.186757,-8.844632,-0.000277,-0.000509,0.000164,-30.368494,-7.192384,34.901806
0.229855,-0.186757,-8.844632,-0.000277,-0.000509,0.000164,-30.368494,-7.192384,34.901806
0.220278,-0.186757,-8.835054,-0.000144,0.000956,0.000696,-30.368494,-7.192384,34.901806
0.220278,-0.186757,-8.835054,-0.000144,0.000956,0.000696,-30.368494,-7.192384,34.901806
0.220278,-0.196335,-8.858997,-0.000676,0.000557,-0.000635,-29.475304,-7.731813,33.346775
0.244221,-0.196335,-8.835054,0.000256,0.000423,-0.000103,-29.475304,-7.731813,33.346775
0.244221,-0.196335,-8.835054,0.000256,0.000423,-0.000103,-29.475304,-7.731813,33.346775
0.234644,-0.191546,-8.844632,0.000389,-0.000642,-0.000369,-29.475304,-7.731813,33.346775
0.234644,-0.191546,-8.844632,0.000389,-0.000642,-0.000369,-29.475304,-7.731813,33.346775
0.239432,-0.191546,-8.820688,-0.000144,-0.000775,-0.000103,-29.475304,-7.731813,33.346775
0.239432,-0.191546,-8.820688,-0.000144,-0.000775,-0.000103,-29.475304,-7.731813,33.346775
0.234644,-0.177180,-8.839843,-0.001342,0.000024,0.000430,-29.475304,-7.731813,33.346775
0.234644,-0.177180,-8.839843,-0.001342,0.000024,0.000430,-29.475304,-7.731813,33.346775
0.225066,-0.196335,-8.820688,-0.000543,0.000024,0.000297,-29.475304,-7.731813,33.346775
0.225066,-0.196335,-8.820688,-0.000543,0.000024,0.000297,-29.475304,-7.731813,33.346775
0.225066,-0.201123,-8.844632,0.000256,-0.000109,-0.000369,-30.189857,-6.293336,36.111275
0.225066,-0.201123,-8.844632,0.000256,-0.000109,-0.000369,-30.189857,-6.293336,36.111275
0.229855,-0.191546,-8.835054,0.000788,0.000690,0.000963,-30.189857,-6.293336,36.111275
0.234644,-0.186757,-8.835054,-0.000011,0.000157,-0.000236,-30.189857,-6.293336,36.111275
0.234644,-0.186757,-8.835054,-0.000011,0.000157,-0.000236,-30.189857,-6.293336,36.111275
0.234644,-0.191546,-8.839843,-0.000543,0.000024,0.000563,-30.189857,-6.293336,36.111275
0.234644,-0.191546,-8.839843,-0.000543,0.000024,0.000563,-30.189857,-6.293336,36.111275
0.229855,-0.191546,-8.820688,-0.000410,0.000690,0.000696,-30.189857,-6.293336,36.111275
0.229855,-0.191546,-8.820688,-0.000410,0.000690,0.000696,-30.189857,-6.293336,36.111275
0.244221,-0.215489,-8.820688,-0.000410,0.000690,0.000430,-30.189857,-6.293336,36.111275
0.244221,-0.215489,-8.820688,-0.000410,0.000690,0.000430,-30.189857,-6.293336,36.111275
0.229855,-0.196335,-8.839843,0.000123,0.000290,0.000297,-31.083048,-6.473145,34.556244
0.229855,-0.196335,-8.839843,0.000123,0.000290,0.000297,-31.083048,-6.473145,34.556244
0.229855,-0.205912,-8.839843,0.000123,0.000290,0.000164,-31.083048,-6.473145,34.556244
0.239432,-0.186757,-8.825478,0.000123,-0.000109,0.000297,-31.083048,-6.473145,34.556244
0.239432,-0.186757,-8.825478,0.000123,-0.000109,0.000297,-31.083048,-6.473145,34.556244
0.229855,-0.196335,-8.858997,-0.000277,0.000024,0.000164,-31.083048,-6.473145,34.556244
0.229855,-0.196335,-8.858997,-0.000277,0.000024,0.000164,-31.083048,-6.473145,34.556244
0.220278,-0.186757,-8.844632,-0.000011,0.000157,-0.000236,-31.083048,-6.473145,34.556244
0.220278,-0.186757,-8.844632,-0.000011,0.000157,-0.000236,-31.083048,-6.473145,34.556244
0.234644,-0.191546,-8.844632,-0.000277,-0.000242,0.000164,-31.083048,-6.473145,34.556244
0.234644,-0.191546,-8.844632,-0.000277,-0.000242,0.000164,-31.083048,-6.473145,34.556244
0.234644,-0.191546,-8.835054,-0.000011,-0.000775,0.000430,-30.725771,-7.192384,35.938492
0.234644,-0.191546,-8.835054,-0.000011,-0.000775,0.000430,-30.725771,-7.192384,35.938492
0.239432,-0.191546,-8.854209,-0.000144,-0.000509,0.000830,-30.725771,-7.192384,35.938492
0.239432,-0.191546,-8.854209,-0.000144,-0.000509,0.000830,-30.725771,-7.192384,35.938492
0.239432,-0.201123,-8.844632,-0.001209,0.000423,0.000164,-30.725771,-7.192384,35.938492
0.229855,-0.186757,-8.820688,0.000389,0.000024,-0.000635,-30.725771,-7.192384,35.938492
0.229855,-0.186757,-8.820688,0.000389,0.000024,-0.000635,-30.725771,-7.192384,35.938492
0.234644,-0.191546,-8.854209,-0.000011,0.000690,-0.000103,-30.725771,-7.192384,35.938492
0.234644,-0.191546,-8.854209,-0.000011,0.000690,-0.000103,-30.725771,-7.192384,35.938492
0.234644,-0.196335,-8.825478,0.000921,0.000956,-0.000369,-30.725771,-7.192384,35.938492
0.234644,-0.196335,-8.825478,0.000921,0.000956,-0.000369,-30.725771,-7.192384,35.938492
0.239432,-0.196335,-8.820688,0.000123,0.000290,-0.000103,-30.725771,-7.192384,35.938492
0.239432,-0.196335,-8.820688,0.000123,0.000290,-0.000103,-30.725771,-7.192384,35.938492
0.234644,-0.196335,-8.830266,-0.000011,-0.000376,0.000830,-30.725771,-7.192384,35.938492
0.234644,-0.196335,-8.830266,-0.000011,-0.000376,0.000830,-30.725771,-7.192384,35.938492
0.229855,-0.196335,-8.820688,0.000389,0.000290,-0.000103,-30.725771,-7.192384,35.938492
0.215489,-0.205912,-8.835054,0.001055,0.000290,-0.000502,-30.725771,-7.192384,35.938492
0.215489,-0.205912,-8.835054,0.001055,0.000290,-0.000502,-30.725771,-7.192384,35.938492
0.239432,-0.177180,-8.825478,0.000123,0.000690,0.000963,-30.725771,-7.192384,35.938492
0.239432,-0.177180,-8.825478,0.000123,0.000690,0.000963,-30.725771,-7.192384,35.938492
0.229855,-0.177180,-8.815900,0.000788,-0.000109,-0.000236,-30.725771,-7.192384,35.938492
0.229855,-0.177180,-8.815900,0.000788,-0.000109,-0.000236,-30.725771,-7.192384,35.938492
0.239432,-0.196335,-8.815900,0.000256,0.000157,0.000164,-30.725771,-7.192384,35.938492
0.239432,-0.196335,-8.815900,0.000256,0.000157,0.000164,-30.725771,-7.192384,35.938492
0.234644,-0.186757,-8.835054,0.000389,-0.000109,0.000696,-30.904409,-7.372194,36.456837
0.234644,-0.186757,-8.835054,0.000389,-0.000109,0.000696,-30.904409,-7.372194,36.456837
0.234644,-0.191546,-8.839843,0.001321,0.000690,-0.000103,-30.904409,-7.372194,36.456837
0.234644,-0.191546,-8.839843,0.001321,0.000690,-0.000103,-30.904409,-7.372194,36.456837
0.225066,-0.191546,-8.844632,0.000256,0.000557,0.000164,-30.904409,-7.372194,36.456837
0.239432,-0.196335,-8.849421,0.000123,0.000290,0.000031,-30.904409,-7.372194,36.456837
0.239432,-0.196335,-8.849421,0.000123,0.000290,0.000031,-30.904409,-7.372194,36.456837
0.239432,-0.181969,-8.825478,-0.000277,-0.000242,0.000297,-30.904409,-7.372194,36.456837
0.239432,-0.181969,-8.825478,-0.000277,-0.000242,0.000297,-30.904409,-7.372194,36.456837
0.225066,-0.186757,-8.830266,-0.000676,-0.000376,0.000563,-30.904409,-7.372194,36.456837
0.225066,-0.186757,-8.830266,-0.000676,-0.000376,0.000563,-30.904409,-7.372194,36.456837
0.215489,-0.186757,-8.844632,-0.000144,0.000557,-0.000103,-30.725771,-8.271241,35.592930
0.215489,-0.186757,-8.844632,-0.000144,0.000557,-0.000103,-30.725771,-8.271241,35.592930
0.234644,-0.191546,-8.825478,0.000256,0.000024,-0.001035,-30.725771,-8.271241,35.592930
0.234644,-0.191546,-8.825478,0.000256,0.000024,-0.001035,-30.725771,-8.271241,35.592930
0.225066,-0.191546,-8.849421,-0.000011,0.000557,-0.001434,-30.725771,-8.271241,35.592930
0.229855,-0.191546,-8.835054,0.001321,-0.000109,-0.001035,-30.725771,-8.271241,35.592930
0.229855,-0.191546,-8.835054,0.001321,-0.000109,-0.001035,-30.725771,-8.271241,35.592930
0.234644,-0.172391,-8.820688,-0.000144,-0.000376,-0.000103,-30.725771,-8.271241,35.592930
0.234644,-0.172391,-8.820688,-0.000144,-0.000376,-0.000103,-30.725771,-8.271241,35.592930
0.234644,-0.196335,-8.835054,0.000256,0.000157,-0.000502,-30.725771,-8.271241,35.592930
0.234644,-0.196335,-8.835054,0.000256,0.000157,-0.000502,-30.725771,-8.271241,35.592930
0.215489,-0.215489,-8.806323,0.000655,0.000423,-0.000103,-31.083048,-6.473145,35.592930
0.215489,-0.215489,-8.806323,0.000655,0.000423,-0.000103,-31.083048,-6.473145,35.592930
0.239432,-0.191546,-8.854209,0.000522,-0.000242,0.000164,-31.083048,-6.473145,35.592930
0.239432,-0.191546,-8.854209,0.000522,-0.000242,0.000164,-31.083048,-6.473145,35.592930
0.229855,-0.210700,-8.839843,-0.000277,0.000557,-0.000502,-31.083048,-6.473145,35.592930
0.229855,-0.210700,-8.839843,-0.000277,0.000557,-0.000502,-31.083048,-6.473145,35.592930
0.225066,-0.181969,-8.820688,-0.000144,-0.000109,-0.000103,-31.083048,-6.473145,35.592930
0.225066,-0.201123,-8.849421,0.000123,0.001089,0.000563,-31.083048,-6.473145,35.592930
0.225066,-0.201123,-8.849421,0.000123,0.001089,0.000563,-31.083048,-6.473145,35.592930
0.239432,-0.201123,-8.839843,-0.000277,0.000157,0.000563,-31.083048,-6.473145,35.592930
0.239432,-0.201123,-8.839843,-0.000277,0.000157,0.000563,-31.083048,-6.473145,35.592930
0.249010,-0.201123,-8.839843,0.000655,-0.000376,-0.000236,-31.440325,-5.753907,34.901806
0.249010,-0.201123,-8.839843,0.000655,-0.000376,-0.000236,-31.440325,-5.753907,34.901806
0.239432,-0.201123,-8.811111,0.000256,-0.000509,0.000164,-31.440325,-5.753907,34.901806
0.239432,-0.201123,-8.811111,0.000256,-0.000509,0.000164,-31.440325,-5.753907,34.901806
0.249010,-0.186757,-8.839843,-0.000144,-0.000109,0.000430,-31.440325,-5.753907,34.901806
0.249010,-0.186757,-8.839843,-0.000144,-0.000109,0.000430,-31.440325,-5.753907,34.901806
0.225066,-0.181969,-8.830266,-0.000277,0.000024,0.000164,-31.440325,-5.753907,34.901806
0.234644,-0.196335,-8.835054,-0.000011,-0.000775,-0.000103,-31.440325,-5.753907,34.901806
0.234644,-0.196335,-8.835054,-0.000011,-0.000775,-0.000103,-31.440325,-5.753907,34.901806
0.239432,-0.186757,-8.825478,-0.000277,0.000024,-0.000103,-31.440325,-5.753907,34.901806
0.239432,-0.186757,-8.825478,-0.000277,0.000024,-0.000103,-31.440325,-5.753907,34.901806
0.229855,-0.205912,-8.825478,-0.000277,0.000823,-0.000502,-31.797600,-7.552003,35.592930
0.229855,-0.205912,-8.825478,-0.000277,0.000823,-0.000502,-31.797600,-7.552003,35.592930
0.234644,-0.186757,-8.830266,0.000788,-0.000109,0.000164,-31.797600,-7.552003,35.592930
0.234644,-0.186757,-8.830266,0.000788,-0.000109,0.000164,-31.797600,-7.552003,35.592930
0.239432,-0.191546,-8.839843,-0.000277,-0.000242,-0.000502,-31.797600,-7.552003,35.592930
0.239432,-0.191546,-8.839843,-0.000277,-0.000242,-0.000502,-31.797600,-7.552003,35.592930
0.249010,-0.191546,-8.835054,0.000655,-0.000376,0.000430,-31.797600,-7.552003,35.592930
0.249010,-0.191546,-8.835054,0.000655,-0.000376,0.000430,-31.797600,-7.552003,35.592930
0.234644,-0.191546,-8.844632,0.000123,0.000157,0.000430,-31.797600,-7.552003,35.592930
0.229855,-0.186757,-8.854209,0.000256,-0.000642,-0.000236,-31.797600,-7.552003,35.592930
0.229855,-0.186757,-8.854209,0.000256,-0.000642,-0.000236,-31.797600,-7.552003,35.592930
0.220278,-0.181969,-8.839843,-0.000144,-0.000376,0.000430,-29.296665,-7.192384,35.247368
0.220278,-0.181969,-8.839843,-0.000144,-0.000376,0.000430,-29.296665,-7.192384,35.247368
0.239432,-0.177180,-8.858997,-0.000011,0.000423,0.000164,-29.296665,-7.192384,35.247368
0.239432,-0.177180,-8.858997,-0.000011,0.000423,0.000164,-29.296665,-7.192384,35.247368
0.229855,-0.191546,-8.820688,0.000123,-0.000109,0.000297,-29.296665,-7.192384,35.247368
0.229855,-0.191546,-8.820688,0.000123,-0.000109,0.000297,-29.296665,-7.192384,35.247368
0.229855,-0.196335,-8.835054,0.000522,-0.000242,-0.000369,-29.296665,-7.192384,35.247368
0.229855,-0.196335,-8.835054,0.000522,-0.000242,-0.000369,-29.296665,-7.192384,35.247368
0.239432,-0.181969,-8.825478,0.000256,-0.000109,-0.000103,-29.296665,-7.192384,35.247368
0.229855,-0.181969,-8.849421,-0.000277,-0.000775,0.000563,-29.296665,-7.192384,35.247368
0.229855,-0.181969,-8.849421,-0.000277,-0.000775,0.000563,-29.296665,-7.192384,35.247368
0.234644,-0.181969,-8.844632,-0.000011,-0.000109,-0.000103,-29.296665,-7.192384,35.247368
0.234644,-0.181969,-8.844632,-0.000011,-0.000109,-0.000103,-29.296665,-7.192384,35.247368
0.234644,-0.186757,-8.844632,0.000123,-0.000242,-0.000236,-30.725771,-6.113526,35.247368
0.234644,-0.186757,-8.844632,0.000123,-0.000242,-0.000236,-30.725771,-6.113526,35.247368
0.239432,-0.191546,-8.835054,-0.000011,-0.000242,-0.000502,-30.725771,-6.113526,35.247368
0.239432,-0.191546,-8.835054,-0.000011,-0.000242,-0.000502,-30.725771,-6.113526,35.247368
0.220278,-0.210700,-8.830266,-0.000277,0.000157,-0.000103,-30.725771,-6.113526,35.247368
0.220278,-0.210700,-8.830266,-0.000277,0.000157,-0.000103,-30.725771,-6.113526,35.247368
0.229855,-0.186757,-8.825478,-0.000277,0.000024,0.000297,-30.725771,-6.113526,35.247368
0.229855,-0.186757,-8.825478,-0.000277,0.000024,0.000297,-30.725771,-6.113526,35.247368
0.229855,-0.186757,-8.825478,-0.000410,-0.000109,0.000297,-30.725771,-6.113526,35.247368
0.225066,-0.181969,-8.849421,-0.000144,0.000157,0.000430,-30.725771,-6.113526,35.247368
0.225066,-0.181969,-8.849421,-0.000144,0.000157,0.000430,-30.725771,-6.113526,35.247368
0.234644,-0.186757,-8.835054,0.000921,-0.000908,0.000430,-30.011219,-6.113526,36.629616
0.234644,-0.186757,-8.835054,0.000921,-0.000908,0.000430,-30.011219,-6.113526,36.629616
0.234644,-0.191546,-8.825478,0.000655,0.000290,0.000563,-30.011219,-6.113526,36.629616
0.234644,-0.191546,-8.825478,0.000655,0.000290,0.000563,-30.011219,-6.113526,36.629616
0.234644,-0.191546,-8.825478,0.000788,0.000956,-0.000369,-30.011219,-6.113526,36.629616
0.234644,-0.191546,-8.825478,0.000788,0.000956,-0.000369,-30.011219,-6.113526,36.629616
0.239432,-0.186757,-8.825478,-0.000011,-0.000109,-0.000635,-30.011219,-6.113526,36.629616
0.239432,-0.186757,-8.825478,-0.000011,-0.000109,-0.000635,-30.011219,-6.113526,36.629616
0.249010,-0.191546,-8.839843,0.001587,0.000423,0.000430,-30.011219,-6.113526,36.629616
0.239432,-0.186757,-8.844632,-0.000543,-0.000376,-0.000635,-30.011219,-6.113526,36.629616
0.239432,-0.186757,-8.844632,-0.000543,-0.000376,-0.000635,-30.011219,-6.113526,36.629616
0.225066,-0.186757,-8.849421,-0.000410,0.000157,0.000164,-32.333515,-6.652955,36.802399
0.225066,-0.186757,-8.849421,-0.000410,0.000157,0.000164,-32.333515,-6.652955,36.802399
0.229855,-0.181969,-8.820688,0.000256,0.000157,0.000164,-32.333515,-6.652955,36.802399
0.229855,-0.181969,-8.820688,0.000256,0.000157,0.000164,-32.333515,-6.652955,36.802399
0.225066,-0.181969,-8.844632,-0.000277,-0.000109,-0.000502,-32.333515,-6.652955,36.802399
0.225066,-0.181969,-8.844632,-0.000277,-0.000109,-0.000502,-32.333515,-6.652955,36.802399
0.239432,-0.186757,-8.830266,-0.000410,-0.000376,-0.000236,-32.333515,-6.652955,36.802399
0.239432,-0.186757,-8.830266,-0.000410,-0.000376,-0.000236,-32.333515,-6.652955,36.802399
0.234644,-0.186757,-8.839843,-0.000277,-0.000376,0.000164,-32.333515,-6.652955,36.802399
0.234644,-0.186757,-8.839843,-0.000277,-0.000376,0.000164,-32.333515,-6.652955,36.802399
0.239432,-0.196335,-8.820688,-0.000277,-0.000376,0.000164,-32.333515,-6.652955,36.802399
0.239432,-0.191546,-8.854209,-0.000144,0.000290,-0.000635,-30.547132,-7.372194,35.074585
0.239432,-0.191546,-8.854209,-0.000144,0.000290,-0.000635,-30.547132,-7.372194,35.074585
0.229855,-0.186757,-8.825478,0.000123,0.000290,0.000297,-30.547132,-7.372194,35.074585
0.229855,-0.186757,-8.825478,0.000123,0.000290,0.000297,-30.547132,-7.372194,35.074585
0.239432,-0.201123,-8.849421,-0.000011,0.000423,0.000696,-30.547132,-7.372194,35.074585
0.239432,-0.201123,-8.849421,-0.000011,0.000423,0.000696,-30.547132,-7.372194,35.074585
0.229855,-0.205912,-8.830266,-0.000410,0.000290,0.000164,-30.547132,-7.372194,35.074585
0.229855,-0.205912,-8.830266,-0.000410,0.000290,0.000164,-30.547132,-7.372194,35.074585
0.234644,-0.191546,-8.844632,-0.000011,-0.000775,0.000164,-30.547132,-7.372194,35.074585
0.234644,-0.191546,-8.844632,-0.000011,-0.000775,0.000164,-30.547132,-7.372194,35.074585
0.229855,-0.186757,-8.825478,-0.000011,-0.000376,0.000696,-30.547132,-7.372194,35.074585
0.225066,-0.181969,-8.835054,0.001188,-0.000242,-0.000103,-30.725771,-6.113526,35.592930
0.225066,-0.181969,-8.835054,0.001188,-0.000242,-0.000103,-30.725771,-6.113526,35.592930
0.239432,-0.191546,-8.854209,0.000921,0.000157,0.000164,-30.725771,-6.113526,35.592930
0.239432,-0.191546,-8.854209,0.000921,0.000157,0.000164,-30.725771,-6.113526,35.592930
0.244221,-0.196335,-8.854209,-0.000277,-0.000376,-0.000635,-30.725771,-6.113526,35.592930
0.244221,-0.196335,-8.854209,-0.000277,-0.000376,-0.000635,-30.725771,-6.113526,35.592930
0.249010,-0.186757,-8.839843,0.000655,0.000423,0.000164,-30.725771,-6.113526,35.592930
0.249010,-0.186757,-8.839843,0.000655,0.000423,0.000164,-30.725771,-6.113526,35.592930
0.234644,-0.191546,-8.844632,0.000655,0.000690,0.000297,-30.725771,-6.113526,35.592930
0.234644,-0.191546,-8.844632,0.000655,0.000690,0.000297,-30.725771,-6.113526,35.592930
0.229855,-0.172391,-8.835054,0.001321,-0.000509,-0.000236,-30.725771,-6.113526,35.592930
0.229855,-0.172391,-8.835054,0.001321,-0.000509,-0.000236,-30.725771,-6.113526,35.592930
0.234644,-0.196335,-8.844632,-0.000410,0.000290,-0.000236,-31.797600,-7.192384,36.629616
0.229855,-0.191546,-8.839843,-0.000144,-0.000109,-0.000768,-31.797600,-7.192384,36.629616
0.229855,-0.191546,-8.839843,-0.000144,-0.000109,-0.000768,-31.797600,-7.192384,36.629616
0.220278,-0.186757,-8.835054,0.000921,-0.000242,0.000297,-31.797600,-7.192384,36.629616
0.220278,-0.186757,-8.835054,0.000921,-0.000242,0.000297,-31.797600,-7.192384,36.629616
0.229855,-0.196335,-8.830266,0.000655,-0.001174,-0.000236,-31.797600,-7.192384,36.629616
0.229855,-0.196335,-8.830266,0.000655,-0.001174,-0.000236,-31.797600,-7.192384,36.629616
0.220278,-0.181969,-8.835054,0.000788,-0.000642,-0.000369,-31.797600,-7.192384,36.629616
0.220278,-0.181969,-8.835054,0.000788,-0.000642,-0.000369,-31.797600,-7.192384,36.629616
0.234644,-0.201123,-8.820688,0.000389,0.000290,0.000696,-31.797600,-7.192384,36.629616
0.234644,-0.201123,-8.820688,0.000389,0.000290,0.000696,-31.797600,-7.192384,36.629616
0.220278,-0.181969,-8.820688,-0.000144,0.000423,0.000963,-31.797600,-7.192384,36.629616
0.225066,-0.196335,-8.844632,0.000788,0.000423,0.000430,-31.261686,-8.451051,35.420151
0.225066,-0.196335,-8.844632,0.000788,0.000423,0.000430,-31.261686,-8.451051,35.420151
0.234644,-0.191546,-8.839843,-0.000410,0.000823,-0.000103,-31.261686,-8.451051,35.420151
0.234644,-0.191546,-8.839843,-0.000410,0.000823,-0.000103,-31.261686,-8.451051,35.420151
0.220278,-0.186757,-8.839843,-0.000543,-0.000242,-0.000901,-31.261686,-8.451051,35.420151
0.220278,-0.186757,-8.839843,-0.000543,-0.000242,-0.000901,-31.261686,-8.451051,35.420151
0.220278,-0.196335,-8.830266,-0.000410,-0.000642,-0.000369,-31.261686,-8.451051,35.420151
0.220278,-0.196335,-8.830266,-0.000410,-0.000642,-0.000369,-31.261686,-8.451051,35.420151
0.239432,-0.205912,-8.844632,-0.000410,-0.000775,-0.000103,-31.261686,-8.451051,35.420151
0.239432,-0.205912,-8.844632,-0.000410,-0.000775,-0.000103,-31.261686,-8.451051,35.420151
0.239432,-0.186757,-8.815900,-0.000011,0.000690,-0.000635,-31.261686,-8.451051,35.420151
0.239432,-0.186757,-8.815900,-0.000011,0.000690,-0.000635,-31.261686,-8.451051,35.420151
0.239432,-0.210700,-8.839843,-0.000277,0.000024,-0.000236,-30.904409,-6.652955,36.456837
0.234644,-0.186757,-8.844632,-0.000676,0.000024,-0.000635,-30.904409,-6.652955,36.456837
0.234644,-0.186757,-8.844632,-0.000676,0.000024,-0.000635,-30.904409,-6.652955,36.456837
0.244221,-0.201123,-8.844632,-0.000410,0.000157,0.000031,-30.904409,-6.652955,36.456837
0.244221,-0.201123,-8.844632,-0.000410,0.000157,0.000031,-30.904409,-6.652955,36.456837
0.229855,-0.196335,-8.830266,0.000256,0.000290,0.000031,-30.904409,-6.652955,36.456837
0.229855,-0.196335,-8.830266,0.000256,0.000290,0.000031,-30.904409,-6.652955,36.456837
0.229855,-0.191546,-8.835054,0.000921,-0.000509,-0.000502,-30.904409,-6.652955,36.456837
0.229855,-0.191546,-8.835054,0.000921,-0.000509,-0.000502,-30.904409,-6.652955,36.456837
0.239432,-0.186757,-8.835054,-0.000277,-0.000775,0.000297,-30.904409,-6.652955,36.456837
0.239432,-0.186757,-8.835054,-0.000277,-0.000775,0.000297,-30.904409,-6.652955,36.456837
0.229855,-0.191546,-8.835054,-0.000277,-0.000509,0.000031,-32.154877,-7.552003,35.592930
0.229855,-0.186757,-8.839843,-0.000410,0.000024,0.000031,-32.154877,-7.552003,35.592930
0.229855,-0.186757,-8.839843,-0.000410,0.000024,0.000031,-32.154877,-7.552003,35.592930
0.239432,-0.191546,-8.835054,-0.000410,-0.000642,0.000563,-32.154877,-7.552003,35.592930
0.239432,-0.191546,-8.835054,-0.000410,-0.000642,0.000563,-32.154877,-7.552003,35.592930
0.258587,-0.201123,-8.854209,-0.000011,-0.000242,0.000031,-32.154877,-7.552003,35.592930
0.258587,-0.201123,-8.854209,-0.000011,-0.000242,0.000031,-32.154877,-7.552003,35.592930
0.244221,-0.181969,-8.830266,0.000123,-0.000509,0.000430,-32.154877,-7.552003,35.592930
0.244221,-0.181969,-8.830266,0.000123,-0.000509,0.000430,-32.154877,-7.552003,35.592930
0.234644,-0.196335,-8.820688,-0.000410,0.000423,-0.000236,-32.154877,-7.552003,35.592930
0.234644,-0.196335,-8.820688,-0.000410,0.000423,-0.000236,-32.154877,-7.552003,35.592930
0.225066,-0.186757,-8.844632,0.000389,0.000690,-0.000236,-30.904409,-6.293336,34.729023
0.225066,-0.186757,-8.844632,0.000389,0.000690,-0.000236,-30.904409,-6.293336,34.729023
0.225066,-0.196335,-8.839843,0.001055,0.000290,-0.000103,-30.904409,-6.293336,34.729023
0.229855,-0.191546,-8.839843,0.001454,0.000024,-0.000236,-30.904409,-6.293336,34.729023
0.229855,-0.191546,-8.839843,0.001454,0.000024,-0.000236,-30.904409,-6.293336,34.729023
0.234644,-0.191546,-8.844632,0.000123,0.000157,0.000297,-30.904409,-6.293336,34.729023
0.234644,-0.191546,-8.844632,0.000123,0.000157,0.000297,-30.904409,-6.293336,34.729023
0.234644,-0.186757,-8.830266,0.000123,0.000290,0.000563,-30.904409,-6.293336,34.729023
0.234644,-0.186757,-8.830266,0.000123,0.000290,0.000563,-30.904409,-6.293336,34.729023
0.229855,-0.181969,-8.830266,-0.000410,0.000024,0.000164,-30.904409,-6.293336,34.729023
0.229855,-0.181969,-8.830266,-0.000410,0.000024,0.000164,-30.904409,-6.293336,34.729023
0.229855,-0.196335,-8.825478,0.000522,-0.000109,0.000430,-30.189857,-8.091432,35.765713
0.229855,-0.196335,-8.825478,0.000522,-0.000109,0.000430,-30.189857,-8.091432,35.765713
0.229855,-0.186757,-8.839843,0.000389,0.000290,-0.000635,-30.189857,-8.091432,35.765713
0.234644,-0.191546,-8.811111,-0.000810,0.000157,0.000297,-30.189857,-8.091432,35.765713
0.234644,-0.191546,-8.811111,-0.000810,0.000157,0.000297,-30.189857,-8.091432,35.765713
0.220278,-0.186757,-8.830266,-0.000277,-0.000509,0.000297,-30.189857,-8.091432,35.765713
0.220278,-0.186757,-8.830266,-0.000277,-0.000509,0.000297,-30.189857,-8.091432,35.765713
0.229855,-0.191546,-8.844632,-0.000011,-0.000109,0.000297,-30.189857,-8.091432,35.765713
0.229855,-0.191546,-8.844632,-0.000011,-0.000109,0.000297,-30.189857,-8.091432,35.765713
0.239432,-0.186757,-8.815900,-0.000277,-0.000109,-0.000236,-30.189857,-8.091432,35.765713
0.239432,-0.186757,-8.815900,-0.000277,-0.000109,-0.000236,-30.189857,-8.091432,35.765713
0.225066,-0.186757,-8.830266,-0.000011,-0.000109,0.000297,-30.368494,-7.911623,35.592930
0.225066,-0.186757,-8.830266,-0.000011,-0.000109,0.000297,-30.368494,-7.911623,35.592930
0.249010,-0.191546,-8.854209,0.000655,0.000557,-0.001168,-30.368494,-7.911623,35.592930
0.249010,-0.191546,-8.854209,0.000655,0.000557,-0.001168,-30.368494,-7.911623,35.592930
0.225066,-0.181969,-8.839843,-0.000144,0.000423,-0.000103,-30.368494,-7.911623,35.592930
0.234644,-0.181969,-8.830266,-0.000011,-0.000109,-0.000502,-30.368494,-7.911623,35.592930
0.234644,-0.181969,-8.830266,-0.000011,-0.000109,-0.000502,-30.368494,-7.911623,35.592930
0.239432,-0.177180,-8.844632,-0.000943,0.000157,-0.000369,-30.368494,-7.911623,35.592930
0.239432,-0.177180,-8.844632,-0.000943,0.000157,-0.000369,-30.368494,-7.911623,35.592930
0.234644,-0.191546,-8.835054,-0.000410,0.000423,-0.000901,-30.368494,-7.911623,35.592930
0.234644,-0.191546,-8.835054,-0.000410,0.000423,-0.000901,-30.368494,-7.911623,35.592930
0.225066,-0.205912,-8.820688,0.000123,0.000557,-0.000236,-30.368494,-7.911623,35.592930
0.225066,-0.205912,-8.820688,0.000123,0.000557,-0.000236,-30.368494,-7.911623,35.592930
0.234644,-0.177180,-8.839843,0.000256,0.000290,0.000430,-31.083048,-6.113526,36.284054
0.234644,-0.177180,-8.839843,0.000256,0.000290,0.000430,-31.083048,-6.113526,36.284054
0.220278,-0.186757,-8.839843,-0.000011,0.000423,-0.000103,-31.083048,-6.113526,36.284054
0.239432,-0.186757,-8.820688,0.001055,-0.000376,0.000297,-31.083048,-6.113526,36.284054
0.239432,-0.186757,-8.820688,0.001055,-0.000376,0.000297,-31.083048,-6.113526,36.284054
0.229855,-0.177180,-8.815900,0.000522,-0.000242,-0.000369,-31.083048,-6.113526,36.284054
0.229855,-0.177180,-8.815900,0.000522,-0.000242,-0.000369,-31.083048,-6.113526,36.284054
0.225066,-0.186757,-8.830266,0.000123,0.000290,-0.000103,-31.083048,-6.113526,36.284054
0.225066,-0.186757,-8.830266,0.000123,0.000290,-0.000103,-31.083048,-6.113526,36.284054
0.225066,-0.196335,-8.844632,0.000655,-0.000376,-0.001434,-31.083048,-6.113526,36.284054
0.225066,-0.196335,-8.844632,0.000655,-0.000376,-0.001434,-31.083048,-6.113526,36.284054
0.234644,-0.196335,-8.849421,0.000522,0.000956,-0.000236,-30.904409,-6.652955,35.765713
0.234644,-0.196335,-8.849421,0.000522,0.000956,-0.000236,-30.904409,-6.652955,35.765713
0.234644,-0.181969,-8.835054,0.000522,0.000290,-0.000103,-30.904409,-6.652955,35.765713
0.234644,-0.181969,-8.835054,0.000522,0.000290,-0.000103,-30.904409,-6.652955,35.765713
0.234644,-0.186757,-8.825478,0.000123,0.000024,-0.000369,-30.904409,-6.652955,35.765713
0.239432,-0.191546,-8.830266,0.000123,-0.000242,-0.000236,-30.904409,-6.652955,35.765713
0.239432,-0.191546,-8.830266,0.000123,-0.000242,-0.000236,-30.904409,-6.652955,35.765713
0.229855,-0.201123,-8.820688,0.000655,0.000157,0.000696,-30.904409,-6.652955,35.765713
0.229855,-0.201123,-8.820688,0.000655,0.000157,0.000696,-30.904409,-6.652955,35.765713
0.234644,-0.196335,-8.844632,0.000389,-0.000242,-0.000103,-30.904409,-6.652955,35.765713
0.234644,-0.196335,-8.844632,0.000389,-0.000242,-0.000103,-30.904409,-6.652955,35.765713
0.215489,-0.186757,-8.844632,0.000389,0.000024,-0.000236,-29.832581,-7.372194,35.765713
0.215489,-0.186757,-8.844632,0.000389,0.000024,-0.000236,-29.832581,-7.372194,35.765713
0.225066,-0.186757,-8.844632,0.001055,0.000157,-0.000236,-29.832581,-7.372194,35.765713
0.225066,-0.186757,-8.844632,0.001055,0.000157,-0.000236,-29.832581,-7.372194,35.765713
0.239432,-0.191546,-8.854209,0.000256,0.001089,0.000696,-29.832581,-7.372194,35.765713
0.229855,-0.210700,-8.844632,-0.000810,0.000024,0.000830,-29.832581,-7.372194,35.765713
0.229855,-0.210700,-8.844632,-0.000810,0.000024,0.000830,-29.832581,-7.372194,35.765713
0.234644,-0.201123,-8.796745,-0.000410,0.000423,0.000563,-29.832581,-7.372194,35.765713
0.234644,-0.201123,-8.796745,-0.000410,0.000423,0.000563,-29.832581,-7.372194,35.765713
0.244221,-0.191546,-8.825478,0.000522,-0.000642,-0.000369,-29.832581,-7.372194,35.765713
0.244221,-0.191546,-8.825478,0.000522,-0.000642,-0.000369,-29.832581,-7.372194,35.765713
0.244221,-0.186757,-8.868575,0.000123,0.000423,-0.000103,-30.904409,-6.652955,35.074585
0.244221,-0.186757,-8.868575,0.000123,0.000423,-0.000103,-30.904409,-6.652955,35.074585
0.239432,-0.181969,-8.839843,-0.000543,0.000690,-0.000635,-30.904409,-6.652955,35.074585
0.239432,-0.181969,-8.839843,-0.000543,0.000690,-0.000635,-30.904409,-6.652955,35.074585
0.215489,-0.177180,-8.820688,0.000921,-0.000242,-0.000103,-30.904409,-6.652955,35.074585
0.215489,-0.177180,-8.820688,0.000921,-0.000242,-0.000103,-30.904409,-6.652955,35.074585
0.215489,-0.186757,-8.825478,0.001055,0.000690,-0.000901,-30.904409,-6.652955,35.074585
0.234644,-0.191546,-8.830266,0.000123,0.000290,0.000430,-30.904409,-6.652955,35.074585
0.234644,-0.191546,-8.830266,0.000123,0.000290,0.000430,-30.904409,-6.652955,35.074585
0.229855,-0.191546,-8.844632,0.000256,0.000157,0.000830,-30.904409,-6.652955,35.074585
0.229855,-0.191546,-8.844632,0.000256,0.000157,0.000830,-30.904409,-6.652955,35.074585
0.239432,-0.191546,-8.858997,0.000788,0.000290,0.000430,-30.725771,-7.552003,35.247368
0.239432,-0.191546,-8.858997,0.000788,0.000290,0.000430,-30.725771,-7.552003,35.247368
0.229855,-0.186757,-8.835054,0.000256,0.000024,-0.000236,-30.725771,-7.552003,35.247368
0.229855,-0.186757,-8.835054,0.000256,0.000024,-0.000236,-30.725771,-7.552003,35.247368
0.215489,-0.191546,-8.825478,0.000256,0.000157,0.000297,-30.725771,-7.552003,35.247368
0.215489,-0.191546,-8.825478,0.000256,0.000157,0.000297,-30.725771,-7.552003,35.247368
0.239432,-0.196335,-8.844632,0.001321,0.000557,-0.000502,-30.725771,-7.552003,35.247368
0.229855,-0.186757,-8.844632,0.000655,-0.000376,-0.000103,-30.725771,-7.552003,35.247368
0.229855,-0.186757,-8.844632,0.000655,-0.000376,-0.000103,-30.725771,-7.552003,35.247368
0.229855,-0.186757,-8.839843,0.000788,-0.000908,-0.000635,-30.725771,-7.552003,35.247368
0.229855,-0.186757,-8.839843,0.000788,-0.000908,-0.000635,-30.725771,-7.552003,35.247368
0.229855,-0.181969,-8.849421,0.001854,-0.000775,0.000297,-30.189857,-7.372194,36.111275
0.229855,-0.181969,-8.849421,0.001854,-0.000775,0.000297,-30.189857,-7.372194,36.111275
0.229855,-0.191546,-8.849421,0.001321,-0.000109,0.000430,-30.189857,-7.372194,36.111275
0.229855,-0.191546,-8.849421,0.001321,-0.000109,0.000430,-30.189857,-7.372194,36.111275
0.239432,-0.191546,-8.835054,0.000788,-0.000242,0.000563,-30.189857,-7.372194,36.111275
0.239432,-0.191546,-8.835054,0.000788,-0.000242,0.000563,-30.189857,-7.372194,36.111275
0.229855,-0.181969,-8.830266,0.000788,0.000024,0.000430,-30.189857,-7.372194,36.111275
0.229855,-0.181969,-8.830266,0.000788,0.000024,0.000430,-30.189857,-7.372194,36.111275
0.239432,-0.181969,-8.849421,0.000256,-0.000642,0.000164,-30.189857,-7.372194,36.111275
0.234644,-0.191546,-8.825478,0.000123,-0.000376,0.000164,-30.189857,-7.372194,36.111275
0.234644,-0.191546,-8.825478,0.000123,-0.000376,0.000164,-30.189857,-7.372194,36.111275
0.239432,-0.196335,-8.835054,-0.001209,0.000024,0.000430,-30.189857,-7.372194,36.111275
0.239432,-0.196335,-8.835054,-0.001209,0.000024,0.000430,-30.189857,-7.372194,36.111275
0.239432,-0.186757,-8.820688,-0.000543,-0.000109,0.000430,-30.725771,-7.911623,35.592930
0.239432,-0.186757,-8.820688,-0.000543,-0.000109,0.000430,-30.725771,-7.911623,35.592930
0.234644,-0.196335,-8.839843,0.000256,-0.000242,-0.000635,-30.725771,-7.911623,35.592930
0.234644,-0.196335,-8.839843,0.000256,-0.000242,-0.000635,-30.725771,-7.911623,35.592930
0.239432,-0.186757,-8.811111,0.000389,-0.000509,-0.000635,-30.725771,-7.911623,35.592930
0.239432,-0.186757,-8.811111,0.000389,-0.000509,-0.000635,-30.725771,-7.911623,35.592930
0.249010,-0.196335,-8.825478,0.000256,0.000157,0.000164,-30.725771,-7.911623,35.592930
0.229855,-0.191546,-8.839843,-0.000277,0.000024,-0.000502,-30.725771,-7.911623,35.592930
0.229855,-0.191546,-8.839843,-0.000277,0.000024,-0.000502,-30.725771,-7.911623,35.592930
0.229855,-0.186757,-8.868575,-0.000410,-0.001308,-0.000236,-30.725771,-7.911623,35.592930
0.229855,-0.186757,-8.868575,-0.000410,-0.001308,-0.000236,-30.725771,-7.911623,35.592930
0.225066,-0.201123,-8.849421,-0.000543,0.000423,-0.000103,-31.976238,-7.372194,36.456837
0.225066,-0.201123,-8.849421,-0.000543,0.000423,-0.000103,-31.976238,-7.372194,36.456837
0.229855,-0.167603,-8.863787,0.000655,-0.000242,0.000031,-31.976238,-7.372194,36.456837
0.229855,-0.167603,-8.863787,0.000655,-0.000242,0.000031,-31.976238,-7.372194,36.456837
0.225066,-0.191546,-8.835054,0.001055,0.001356,0.000297,-31.976238,-7.372194,36.456837
0.225066,-0.191546,-8.835054,0.001055,0.001356,0.000297,-31.976238,-7.372194,36.456837
0.229855,-0.186757,-8.825478,0.000522,0.000157,0.000031,-31.976238,-7.372194,36.456837
0.229855,-0.186757,-8.825478,0.000522,0.000157,0.000031,-31.976238,-7.372194,36.456837
0.225066,-0.181969,-8.835054,0.000788,0.000024,0.000297,-31.976238,-7.372194,36.456837
0.234644,-0.186757,-8.863787,0.001321,0.000956,-0.000502,-31.976238,-7.372194,36.456837
0.234644,-0.186757,-8.863787,0.001321,0.000956,-0.000502,-31.976238,-7.372194,36.456837
0.234644,-0.177180,-8.844632,0.000389,0.000690,0.000031,-30.189857,-6.652955,36.802399
0.234644,-0.177180,-8.844632,0.000389,0.000690,0.000031,-30.189857,-6.652955,36.802399
0.225066,-0.186757,-8.863787,0.001055,0.000557,0.000164,-30.189857,-6.652955,36.802399
0.225066,-0.186757,-8.863787,0.001055,0.000557,0.000164,-30.189857,-6.652955,36.802399
0.234644,-0.172391,-8.825478,0.000123,-0.000242,-0.000901,-30.189857,-6.652955,36.802399
0.234644,-0.172391,-8.825478,0.000123,-0.000242,-0.000901,-30.189857,-6.652955,36.802399
0.258587,-0.186757,-8.825478,0.000921,0.000423,0.000563,-30.189857,-6.652955,36.802399
0.258587,-0.186757,-8.825478,0.000921,0.000423,0.000563,-30.189857,-6.652955,36.802399
0.225066,-0.201123,-8.830266,0.000921,-0.000509,0.000297,-30.189857,-6.652955,36.802399
0.239432,-0.196335,-8.844632,0.001188,-0.000376,0.000031,-30.189857,-6.652955,36.802399
0.239432,-0.196335,-8.844632,0.001188,-0.000376,0.000031,-30.189857,-6.652955,36.802399
0.239432,-0.186757,-8.825478,0.001188,-0.001041,-0.001168,-31.261686,-7.731813,37.147961
0.239432,-0.186757,-8.825478,0.001188,-0.001041,-0.001168,-31.261686,-7.731813,37.147961
0.239432,-0.177180,-8.825478,-0.000277,0.001356,-0.000901,-31.261686,-7.731813,37.147961
0.239432,-0.177180,-8.825478,-0.000277,0.001356,-0.000901,-31.261686,-7.731813,37.147961
0.225066,-0.172391,-8.849421,0.000123,0.000423,-0.000635,-31.261686,-7.731813,37.147961
0.225066,-0.172391,-8.849421,0.000123,0.000423,-0.000635,-31.261686,-7.731813,37.147961
0.229855,-0.177180,-8.849421,0.000123,-0.000509,-0.000768,-31.261686,-7.731813,37.147961
0.229855,-0.177180,-8.849421,0.000123,-0.000509,-0.000768,-31.261686,-7.731813,37.147961
0.229855,-0.191546,-8.839843,-0.000011,0.000423,0.001096,-31.261686,-7.731813,37.147961
0.229855,-0.191546,-8.839843,-0.000011,0.000423,0.001096,-31.261686,-7.731813,37.147961
0.234644,-0.181969,-8.839843,0.000522,-0.000509,-0.000236,-31.261686,-7.731813,37.147961
0.239432,-0.181969,-8.839843,0.000256,-0.000509,-0.000236,-31.083048,-6.832765,36.284054
0.239432,-0.181969,-8.839843,0.000256,-0.000509,-0.000236,-31.083048,-6.832765,36.284054
0.229855,-0.191546,-8.854209,0.000256,-0.000376,0.000563,-31.083048,-6.832765,36.284054
0.229855,-0.191546,-8.854209,0.000256,-0.000376,0.000563,-31.083048,-6.832765,36.284054
0.239432,-0.181969,-8.839843,-0.000277,-0.000376,0.000031,-31.083048,-6.832765,36.284054
0.239432,-0.181969,-8.839843,-0.000277,-0.000376,0.000031,-31.083048,-6.832765,36.284054
0.239432,-0.191546,-8.839843,0.000655,-0.000775,-0.000236,-31.083048,-6.832765,36.284054
0.239432,-0.191546,-8.839843,0.000655,-0.000775,-0.000236,-31.083048,-6.832765,36.284054
0.220278,-0.196335,-8.830266,0.000522,-0.000509,0.000696,-31.083048,-6.832765,36.284054
0.220278,-0.196335,-8.830266,0.000522,-0.000509,0.000696,-31.083048,-6.832765,36.284054
0.225066,-0.196335,-8.820688,-0.000144,0.000290,0.001096,-31.083048,-6.832765,36.284054
0.239432,-0.191546,-8.844632,0.000921,0.000024,-0.000103,-29.296665,-7.552003,35.938492
0.239432,-0.191546,-8.844632,0.000921,0.000024,-0.000103,-29.296665,-7.552003,35.938492
0.225066,-0.191546,-8.839843,0.001587,0.000024,-0.000236,-29.296665,-7.552003,35.938492
0.225066,-0.191546,-8.839843,0.001587,0.000024,-0.000236,-29.296665,-7.552003,35.938492
0.244221,-0.196335,-8.830266,0.001720,-0.000376,0.000430,-29.296665,-7.552003,35.938492
0.244221,-0.196335,-8.830266,0.001720,-0.000376,0.000430,-29.296665,-7.552003,35.938492
0.249010,-0.186757,-8.849421,0.000788,-0.000242,0.000164,-29.296665,-7.552003,35.938492
0.249010,-0.186757,-8.849421,0.000788,-0.000242,0.000164,-29.296665,-7.552003,35.938492
0.234644,-0.196335,-8.849421,0.000256,-0.000242,-0.000236,-29.296665,-7.552003,35.938492
0.234644,-0.196335,-8.849421,0.000256,-0.000242,-0.000236,-29.296665,-7.552003,35.938492
0.244221,-0.191546,-8.839843,0.000256,0.000290,-0.000103,-29.296665,-7.552003,35.938492
0.244221,-0.191546,-8.839843,0.000256,0.000290,-0.000103,-29.296665,-7.552003,35.938492
0.229855,-0.177180,-8.839843,0.001188,0.000157,-0.000103,-29.296665,-7.552003,35.938492
0.239432,-0.191546,-8.854209,0.001188,0.000823,-0.000369,-30.547132,-8.091432,36.802399
0.239432,-0.191546,-8.854209,0.001188,0.000823,-0.000369,-30.547132,-8.091432,36.802399
0.229855,-0.181969,-8.839843,0.000655,-0.000509,-0.000768,-30.547132,-8.091432,36.802399
0.229855,-0.181969,-8.839843,0.000655,-0.000509,-0.000768,-30.547132,-8.091432,36.802399
0.229855,-0.196335,-8.811111,0.000256,-0.000109,-0.000768,-30.547132,-8.091432,36.802399
0.229855,-0.196335,-8.811111,0.000256,-0.000109,-0.000768,-30.547132,-8.091432,36.802399
0.210700,-0.186757,-8.811111,0.000123,0.000557,-0.000103,-30.547132,-8.091432,36.802399
0.210700,-0.186757,-8.811111,0.000123,0.000557,-0.000103,-30.547132,-8.091432,36.802399
0.229855,-0.186757,-8.839843,0.000256,0.000290,0.000164,-30.547132,-8.091432,36.802399
0.229855,-0.186757,-8.839843,0.000256,0.000290,0.000164,-30.547132,-8.091432,36.802399
0.239432,-0.201123,-8.849421,0.001055,0.000290,0.000031,-30.547132,-8.091432,36.802399
0.244221,-0.201123,-8.839843,0.000389,0.000956,-0.000369,-30.368494,-6.832765,37.666306
0.244221,-0.201123,-8.839843,0.000389,0.000956,-0.000369,-30.368494,-6.832765,37.666306
0.234644,-0.186757,-8.844632,0.001055,0.000956,0.001096,-30.368494,-6.832765,37.666306
0.234644,-0.186757,-8.844632,0.001055,0.000956,0.001096,-30.368494,-6.832765,37.666306
0.244221,-0.186757,-8.844632,0.000655,-0.000775,0.000031,-30.368494,-6.832765,37.666306
0.244221,-0.186757,-8.844632,0.000655,-0.000775,0.000031,-30.368494,-6.832765,37.666306
0.229855,-0.191546,-8.849421,0.000921,0.000157,0.000164,-30.368494,-6.832765,37.666306
0.229855,-0.191546,-8.849421,0.000921,0.000157,0.000164,-30.368494,-6.832765,37.666306
0.225066,-0.201123,-8.820688,0.000788,0.000290,0.000696,-30.368494,-6.832765,37.666306
0.225066,-0.201123,-8.820688,0.000788,0.000290,0.000696,-30.368494,-6.832765,37.666306
0.225066,-0.191546,-8.830266,0.000522,0.000024,-0.000103,-30.368494,-6.832765,37.666306
0.225066,-0.191546,-8.830266,0.000522,0.000024,-0.000103,-30.368494,-6.832765,37.666306
0.225066,-0.191546,-8.839843,0.000123,-0.000242,0.000297,-30.189857,-7.012574,35.420151
0.229855,-0.186757,-8.858997,0.001055,0.000290,-0.000236,-30.189857,-7.012574,35.420151
0.229855,-0.186757,-8.858997,0.001055,0.000290,-0.000236,-30.189857,-7.012574,35.420151
0.229855,-0.196335,-8.854209,0.000655,0.000690,0.000696,-30.189857,-7.012574,35.420151
0.229855,-0.196335,-8.854209,0.000655,0.000690,0.000696,-30.189857,-7.012574,35.420151
0.210700,-0.196335,-8.820688,-0.000011,-0.000509,0.000031,-30.189857,-7.012574,35.420151
0.210700,-0.196335,-8.820688,-0.000011,-0.000509,0.000031,-30.189857,-7.012574,35.420151
0.239432,-0.191546,-8.844632,0.000389,0.000157,-0.000369,-30.189857,-7.012574,35.420151
0.239432,-0.191546,-8.844632,0.000389,0.000157,-0.000369,-30.189857,-7.012574,35.420151
0.234644,-0.181969,-8.825478,0.000655,-0.000642,0.000563,-30.189857,-7.012574,35.420151
0.234644,-0.181969,-8.825478,0.000655,-0.000642,0.000563,-30.189857,-7.012574,35.420151
0.225066,-0.186757,-8.863787,0.000655,-0.000242,0.000297,-29.118027,-8.091432,34.729023
0.220278,-0.181969,-8.835054,0.000788,-0.000109,0.000830,-29.118027,-8.091432,34.729023
0.220278,-0.181969,-8.835054,0.000788,-0.000109,0.000830,-29.118027,-8.091432,34.729023
0.234644,-0.201123,-8.825478,0.000655,-0.000376,0.000563,-29.118027,-8.091432,34.729023
0.234644,-0.201123,-8.825478,0.000655,-0.000376,0.000563,-29.118027,-8.091432,34.729023
0.225066,-0.196335,-8.863787,-0.000011,0.000290,-0.000103,-29.118027,-8.091432,34.729023
0.225066,-0.196335,-8.863787,-0.000011,0.000290,-0.000103,-29.118027,-8.091432,34.729023
0.225066,-0.191546,-8.830266,-0.000810,0.000690,-0.000502,-29.118027,-8.091432,34.729023
0.225066,-0.191546,-8.830266,-0.000810,0.000690,-0.000502,-29.118027,-8.091432,34.729023
0.234644,-0.186757,-8.844632,0.000389,-0.000509,-0.000768,-29.118027,-8.091432,34.729023
0.234644,-0.186757,-8.844632,0.000389,-0.000509,-0.000768,-29.118027,-8.091432,34.729023
0.239432,-0.186757,-8.839843,0.000123,-0.001174,-0.000635,-30.011219,-7.552003,36.629616
0.239432,-0.186757,-8.839843,0.000123,-0.001174,-0.000635,-30.011219,-7.552003,36.629616
0.234644,-0.191546,-8.839843,-0.000676,0.000557,0.000164,-30.011219,-7.552003,36.629616
0.244221,-0.196335,-8.854209,-0.000144,-0.000376,0.000031,-30.011219,-7.552003,36.629616
0.244221,-0.196335,-8.854209,-0.000144,-0.000376,0.000031,-30.011219,-7.552003,36.629616
0.234644,-0.186757,-8.858997,0.000123,-0.000242,-0.000635,-30.011219,-7.552003,36.629616
0.234644,-0.186757,-8.858997,0.000123,-0.000242,-0.000635,-30.011219,-7.552003,36.629616
0.229855,-0.186757,-8.830266,0.000123,-0.000242,-0.000502,-30.011219,-7.552003,36.629616
0.229855,-0.186757,-8.830266,0.000123,-0.000242,-0.000502,-30.011219,-7.552003,36.629616
0.220278,-0.186757,-8.835054,0.000788,-0.000242,-0.000901,-30.011219,-7.552003,36.629616
0.220278,-0.186757,-8.835054,0.000788,-0.000242,-0.000901,-30.011219,-7.552003,36.629616
0.229855,-0.191546,-8.849421,0.000389,0.000024,-0.000236,-32.333515,-8.091432,36.802399
0.229855,-0.191546,-8.849421,0.000389,0.000024,-0.000236,-32.333515,-8.091432,36.802399
0.229855,-0.191546,-8.835054,0.000522,0.000024,0.000430,-32.333515,-8.091432,36.802399
0.225066,-0.201123,-8.839843,0.000256,0.000157,0.000430,-32.333515,-8.091432,36.802399
0.225066,-0.201123,-8.839843,0.000256,0.000157,0.000430,-32.333515,-8.091432,36.802399
0.225066,-0.186757,-8.844632,0.000389,-0.000242,-0.000369,-32.333515,-8.091432,36.802399
0.225066,-0.186757,-8.844632,0.000389,-0.000242,-0.000369,-32.333515,-8.091432,36.802399
0.234644,-0.172391,-8.835054,0.000921,0.000024,0.000164,-32.333515,-8.091432,36.802399
0.234644,-0.172391,-8.835054,0.000921,0.000024,0.000164,-32.333515,-8.091432,36.802399
0.225066,-0.172391,-8.820688,-0.000011,-0.000109,0.000297,-32.333515,-8.091432,36.802399
0.225066,-0.172391,-8.820688,-0.000011,-0.000109,0.000297,-32.333515,-8.091432,36.802399
0.239432,-0.186757,-8.830266,-0.000277,-0.000242,0.000164,-32.333515,-8.091432,36.802399
0.239432,-0.186757,-8.830266,-0.000277,-0.000242,0.000164,-32.333515,-8.091432,36.802399
0.239432,-0.205912,-8.858997,0.000655,0.000157,-0.000635,-30.904409,-7.731813,38.184647
0.239432,-0.205912,-8.858997,0.000655,0.000157,-0.000635,-30.904409,-7.731813,38.184647
0.239432,-0.172391,-8.854209,-0.000277,0.000157,-0.000369,-30.904409,-7.731813,38.184647
0.244221,-0.186757,-8.811111,0.000522,0.000024,-0.000236,-30.904409,-7.731813,38.184647
0.244221,-0.186757,-8.811111,0.000522,0.000024,-0.000236,-30.904409,-7.731813,38.184647
0.229855,-0.191546,-8.830266,0.001055,0.000157,0.000430,-30.904409,-7.731813,38.184647
0.229855,-0.191546,-8.830266,0.001055,0.000157,0.000430,-30.904409,-7.731813,38.184647
0.239432,-0.181969,-8.849421,0.000655,0.000423,0.000297,-30.904409,-7.731813,38.184647
0.239432,-0.181969,-8.849421,0.000655,0.000423,0.000297,-30.904409,-7.731813,38.184647
0.229855,-0.196335,-8.844632,-0.000011,0.000157,0.000963,-30.904409,-7.731813,38.184647
0.229855,-0.196335,-8.844632,-0.000011,0.000157,0.000963,-30.904409,-7.731813,38.184647
0.234644,-0.186757,-8.854209,-0.000277,0.000290,0.000164,-31.976238,-7.372194,35.420151
0.234644,-0.186757,-8.854209,-0.000277,0.000290,0.000164,-31.976238,-7.372194,35.420151
0.234644,-0.191546,-8.811111,0.000655,-0.000642,-0.000236,-31.976238,-7.372194,35.420151
0.220278,-0.186757,-8.849421,0.000123,-0.000376,0.000563,-31.976238,-7.372194,35.420151
0.220278,-0.186757,-8.849421,0.000123,-0.000376,0.000563,-31.976238,-7.372194,35.420151
0.225066,-0.201123,-8.825478,0.001321,0.000557,0.000963,-31.976238,-7.372194,35.420151
0.225066,-0.201123,-8.825478,0.001321,0.000557,0.000963,-31.976238,-7.372194,35.420151
0.215489,-0.196335,-8.854209,0.000256,0.000823,0.001096,-31.976238,-7.372194,35.420151
0.215489,-0.196335,-8.854209,0.000256,0.000823,0.001096,-31.976238,-7.372194,35.420151
0.239432,-0.210700,-8.811111,-0.000810,0.000290,-0.000502,-31.976238,-7.372194,35.420151
0.239432,-0.210700,-8.811111,-0.000810,0.000290,-0.000502,-31.976238,-7.372194,35.420151
0.239432,-0.191546,-8.830266,0.000921,0.000024,-0.000502,-31.261686,-6.652955,36.456837
0.239432,-0.191546,-8.830266,0.000921,0.000024,-0.000502,-31.261686,-6.652955,36.456837
0.239432,-0.172391,-8.839843,0.001055,0.000956,-0.000103,-31.261686,-6.652955,36.456837
0.239432,-0.172391,-8.839843,0.001055,0.000956,-0.000103,-31.261686,-6.652955,36.456837
0.220278,-0.196335,-8.844632,-0.000011,0.000557,0.000297,-31.261686,-6.652955,36.456837
0.244221,-0.196335,-8.830266,-0.000011,0.000290,0.000830,-31.261686,-6.652955,36.456837
0.244221,-0.196335,-8.830266,-0.000011,0.000290,0.000830,-31.261686,-6.652955,36.456837
0.234644,-0.177180,-8.839843,0.000522,0.000423,-0.000103,-31.261686,-6.652955,36.456837
0.234644,-0.177180,-8.839843,0.000522,0.000423,-0.000103,-31.261686,-6.652955,36.456837
0.225066,-0.196335,-8.835054,0.000788,0.000024,-0.000901,-31.261686,-6.652955,36.456837
0.225066,-0.196335,-8.835054,0.000788,0.000024,-0.000901,-31.261686,-6.652955,36.456837
0.239432,-0.186757,-8.839843,0.000256,0.000024,-0.000369,-30.189857,-7.012574,35.074585
0.239432,-0.186757,-8.839843,0.000256,0.000024,-0.000369,-30.189857,-7.012574,35.074585
0.249010,-0.186757,-8.830266,0.000522,0.000823,-0.000369,-30.189857,-7.012574,35.074585
0.249010,-0.186757,-8.830266,0.000522,0.000823,-0.000369,-30.189857,-7.012574,35.074585
0.239432,-0.181969,-8.835054,0.000522,0.000823,0.000164,-30.189857,-7.012574,35.074585
0.234644,-0.177180,-8.835054,0.000256,-0.000242,0.000297,-30.189857,-7.012574,35.074585
0.234644,-0.177180,-8.835054,0.000256,-0.000242,0.000297,-30.189857,-7.012574,35.074585
0.244221,-0.186757,-8.830266,0.000389,0.000823,-0.000502,-30.189857,-7.012574,35.074585
0.244221,-0.186757,-8.830266,0.000389,0.000823,-0.000502,-30.189857,-7.012574,35.074585
0.229855,-0.201123,-8.839843,0.000655,0.000024,-0.000236,-30.189857,-7.012574,35.074585
0.229855,-0.201123,-8.839843,0.000655,0.000024,-0.000236,-30.189857,-7.012574,35.074585
0.234644,-0.215489,-8.858997,-0.000011,0.000956,0.000696,-33.226707,-8.271241,36.975182
0.234644,-0.215489,-8.858997,-0.000011,0.000956,0.000696,-33.226707,-8.271241,36.975182
0.234644,-0.205912,-8.844632,-0.000410,0.000690,-0.000369,-33.226707,-8.271241,36.975182
0.234644,-0.205912,-8.844632,-0.000410,0.000690,-0.000369,-33.226707,-8.271241,36.975182
0.253798,-0.191546,-8.835054,-0.001475,-0.000242,0.000031,-33.226707,-8.271241,36.975182
0.253798,-0.191546,-8.835054,-0.001475,-0.000242,0.000031,-33.226707,-8.271241,36.975182
0.234644,-0.181969,-8.811111,-0.000011,-0.000109,0.000563,-33.226707,-8.271241,36.975182
0.234644,-0.186757,-8.830266,0.000522,-0.000109,0.000164,-33.226707,-8.271241,36.975182
0.234644,-0.186757,-8.830266,0.000522,-0.000109,0.000164,-33.226707,-8.271241,36.975182
0.244221,-0.191546,-8.839843,0.000256,-0.001041,0.000297,-33.226707,-8.271241,36.975182
0.244221,-0.191546,-8.839843,0.000256,-0.001041,0.000297,-33.226707,-8.271241,36.975182
0.239432,-0.191546,-8.844632,0.000522,-0.000376,0.000430,-31.618961,-7.372194,35.420151
0.239432,-0.191546,-8.844632,0.000522,-0.000376,0.000430,-31.618961,-7.372194,35.420151
0.244221,-0.177180,-8.835054,0.000655,-0.000376,0.000031,-31.618961,-7.372194,35.420151
0.244221,-0.177180,-8.835054,0.000655,-0.000376,0.000031,-31.618961,-7.372194,35.420151
0.229855,-0.186757,-8.844632,0.000522,0.000157,-0.000369,-31.618961,-7.372194,35.420151
0.229855,-0.186757,-8.844632,0.000522,0.000157,-0.000369,-31.618961,-7.372194,35.420151
0.253798,-0.196335,-8.844632,0.000123,0.000290,-0.000768,-31.618961,-7.372194,35.420151
0.229855,-0.191546,-8.835054,0.000256,0.000290,-0.001168,-31.618961,-7.372194,35.420151
0.229855,-0.191546,-8.835054,0.000256,0.000290,-0.001168,-31.618961,-7.372194,35.420151
0.225066,-0.181969,-8.839843,-0.000144,-0.000509,-0.000103,-31.618961,-7.372194,35.420151
0.225066,-0.181969,-8.839843,-0.000144,-0.000509,-0.000103,-31.618961,-7.372194,35.420151
0.234644,-0.186757,-8.854209,0.001321,-0.000376,-0.000768,-31.618961,-7.372194,35.420151
0.234644,-0.186757,-8.854209,0.001321,-0.000376,-0.000768,-31.618961,-7.372194,35.420151
0.244221,-0.196335,-8.858997,0.000389,-0.000242,-0.000369,-30.904409,-6.293336,35.420151
0.244221,-0.196335,-8.858997,0.000389,-0.000242,-0.000369,-30.904409,-6.293336,35.420151
0.239432,-0.196335,-8.830266,0.000389,-0.000242,0.000031,-30.904409,-6.293336,35.420151
0.239432,-0.196335,-8.830266,0.000389,-0.000242,0.000031,-30.904409,-6.293336,35.420151
0.249010,-0.177180,-8.858997,0.000389,-0.000509,0.000297,-30.904409,-6.293336,35.420151
0.249010,-0.177180,-8.858997,0.000389,-0.000509,0.000297,-30.904409,-6.293336,35.420151
0.239432,-0.196335,-8.844632,-0.001209,-0.000376,0.000830,-30.904409,-6.293336,35.420151
0.234644,-0.191546,-8.835054,-0.000011,-0.000242,0.000164,-30.904409,-6.293336,35.420151
0.234644,-0.191546,-8.835054,-0.000011,-0.000242,0.000164,-30.904409,-6.293336,35.420151
0.229855,-0.181969,-8.830266,0.000522,-0.000642,-0.001035,-30.904409,-6.293336,35.420151
0.229855,-0.181969,-8.830266,0.000522,-0.000642,-0.001035,-30.904409,-6.293336,35.420151
0.229855,-0.186757,-8.839843,0.000788,-0.000509,-0.000236,-30.547132,-7.012574,35.765713
0.229855,-0.186757,-8.839843,0.000788,-0.000509,-0.000236,-30.547132,-7.012574,35.765713
0.215489,-0.181969,-8.820688,-0.000410,-0.000242,0.000696,-30.547132,-7.012574,35.765713
0.215489,-0.181969,-8.820688,-0.000410,-0.000242,0.000696,-30.547132,-7.012574,35.765713
0.239432,-0.196335,-8.844632,-0.000410,0.000690,-0.000236,-30.547132,-7.012574,35.765713
0.239432,-0.196335,-8.844632,-0.000410,0.000690,-0.000236,-30.547132,-7.012574,35.765713
0.249010,-0.191546,-8.839843,0.000389,0.000557,0.000297,-30.547132,-7.012574,35.765713
0.249010,-0.186757,-8.839843,0.000389,-0.000509,0.000696,-30.547132,-7.012574,35.765713
0.249010,-0.186757,-8.839843,0.000389,-0.000509,0.000696,-30.547132,-7.012574,35.765713
0.239432,-0.196335,-8.820688,-0.000277,0.000157,0.000031,-30.547132,-7.012574,35.765713
0.239432,-0.196335,-8.820688,-0.000277,0.000157,0.000031,-30.547132,-7.012574,35.765713
0.229855,-0.186757,-8.839843,0.000389,-0.000775,0.000430,-30.547132,-8.451051,35.074585
0.229855,-0.186757,-8.839843,0.000389,-0.000775,0.000430,-30.547132,-8.451051,35.074585
0.210700,-0.181969,-8.839843,0.000123,-0.000376,0.000031,-30.547132,-8.451051,35.074585
0.210700,-0.181969,-8.839843,0.000123,-0.000376,0.000031,-30.547132,-8.451051,35.074585
0.239432,-0.191546,-8.849421,0.000389,-0.000775,0.000164,-30.547132,-8.451051,35.074585
0.239432,-0.191546,-8.849421,0.000389,-0.000775,0.000164,-30.547132,-8.451051,35.074585
0.220278,-0.196335,-8.835054,0.000389,-0.000376,-0.000236,-30.547132,-8.451051,35.074585
0.220278,-0.196335,-8.835054,0.000389,-0.000376,-0.000236,-30.547132,-8.451051,35.074585
0.239432,-0.196335,-8.825478,0.000256,-0.000908,-0.000635,-30.547132,-8.451051,35.074585
0.249010,-0.191546,-8.839843,0.001188,-0.000908,-0.000236,-30.547132,-8.451051,35.074585
0.249010,-0.191546,-8.839843,0.001188,-0.000908,-0.000236,-30.547132,-8.451051,35.074585
0.239432,-0.201123,-8.863787,-0.000543,0.000157,-0.000502,-31.083048,-7.192384,36.284054
0.239432,-0.201123,-8.863787,-0.000543,0.000157,-0.000502,-31.083048,-7.192384,36.284054
0.244221,-0.201123,-8.854209,-0.000011,0.000690,-0.000103,-31.083048,-7.192384,36.284054
0.244221,-0.201123,-8.854209,-0.000011,0.000690,-0.000103,-31.083048,-7.192384,36.284054
0.234644,-0.186757,-8.839843,-0.000676,-0.000109,-0.000103,-31.083048,-7.192384,36.284054
0.234644,-0.186757,-8.839843,-0.000676,-0.000109,-0.000103,-31.083048,-7.192384,36.284054
0.239432,-0.186757,-8.839843,0.000389,-0.000242,0.000164,-31.083048,-7.192384,36.284054
0.239432,-0.186757,-8.839843,0.000389,-0.000242,0.000164,-31.083048,-7.192384,36.284054
0.239432,-0.196335,-8.835054,0.000123,-0.000242,0.000164,-31.083048,-7.192384,36.284054
0.229855,-0.186757,-8.863787,0.000256,-0.000376,0.000563,-31.083048,-7.192384,36.284054
0.229855,-0.186757,-8.863787,0.000256,-0.000376,0.000563,-31.083048,-7.192384,36.284054
0.244221,-0.201123,-8.835054,0.000655,-0.000109,-0.000103,-30.368494,-7.552003,34.901806
0.244221,-0.201123,-8.835054,0.000655,-0.000109,-0.000103,-30.368494,-7.552003,34.901806
0.234644,-0.191546,-8.830266,-0.000277,-0.001041,-0.000236,-30.368494,-7.552003,34.901806
0.234644,-0.191546,-8.830266,-0.000277,-0.001041,-0.000236,-30.368494,-7.552003,34.901806
0.244221,-0.186757,-8.839843,-0.000011,0.000024,-0.000768,-30.368494,-7.552003,34.901806
0.244221,-0.186757,-8.839843,-0.000011,0.000024,-0.000768,-30.368494,-7.552003,34.901806
0.225066,-0.191546,-8.854209,-0.000144,-0.000642,-0.000369,-30.368494,-7.552003,34.901806
0.225066,-0.191546,-8.854209,-0.000144,-0.000642,-0.000369,-30.368494,-7.552003,34.901806
0.234644,-0.201123,-8.854209,-0.000011,-0.000109,-0.000236,-30.368494,-7.552003,34.901806
0.234644,-0.201123,-8.854209,-0.000011,-0.000109,-0.000236,-30.368494,-7.552003,34.901806
0.229855,-0.186757,-8.839843,-0.000277,0.000557,-0.000768,-30.368494,-7.552003,34.901806
0.229855,-0.177180,-8.811111,-0.000676,-0.000642,-0.000369,-30.547132,-7.731813,35.765713
0.229855,-0.177180,-8.811111,-0.000676,-0.000642,-0.000369,-30.547132,-7.731813,35.765713
0.234644,-0.191546,-8.835054,0.000655,-0.000775,-0.000502,-30.547132,-7.731813,35.765713
0.234644,-0.191546,-8.835054,0.000655,-0.000775,-0.000502,-30.547132,-7.731813,35.765713
0.234644,-0.186757,-8.849421,-0.000410,-0.000642,0.000164,-30.547132,-7.731813,35.765713
0.234644,-0.186757,-8.849421,-0.000410,-0.000642,0.000164,-30.547132,-7.731813,35.765713
0.244221,-0.196335,-8.849421,0.000921,-0.000376,0.000963,-30.547132,-7.731813,35.765713
0.244221,-0.196335,-8.849421,0.000921,-0.000376,0.000963,-30.547132,-7.731813,35.765713
0.244221,-0.191546,-8.839843,0.000256,-0.000109,0.000430,-30.547132,-7.731813,35.765713
0.244221,-0.191546,-8.839843,0.000256,-0.000109,0.000430,-30.547132,-7.731813,35.765713
0.239432,-0.186757,-8.844632,0.000256,-0.000242,0.001229,-30.547132,-7.731813,35.765713
0.234644,-0.196335,-8.830266,0.001055,0.000557,0.000830,-30.547132,-7.731813,35.765713
0.234644,-0.196335,-8.830266,0.001055,0.000557,0.000830,-30.547132,-7.731813,35.765713
0.229855,-0.186757,-8.839843,-0.000277,-0.000775,0.000963,-30.189857,-6.293336,35.420151
0.229855,-0.186757,-8.839843,-0.000277,-0.000775,0.000963,-30.189857,-6.293336,35.420151
0.239432,-0.177180,-8.849421,-0.000410,-0.000376,0.000830,-30.189857,-6.293336,35.420151
0.239432,-0.177180,-8.849421,-0.000410,-0.000376,0.000830,-30.189857,-6.293336,35.420151
0.234644,-0.196335,-8.835054,0.000655,-0.000509,-0.000236,-30.189857,-6.293336,35.420151
0.234644,-0.196335,-8.835054,0.000655,-0.000509,-0.000236,-30.189857,-6.293336,35.420151
0.225066,-0.186757,-8.835054,0.000256,-0.000109,-0.000236,-30.189857,-6.293336,35.420151
0.225066,-0.186757,-8.835054,0.000256,-0.000109,-0.000236,-30.189857,-6.293336,35.420151
0.225066,-0.181969,-8.825478,0.000921,0.000423,-0.000502,-30.189857,-6.293336,35.420151
0.225066,-0.181969,-8.825478,0.000921,0.000423,-0.000502,-30.189857,-6.293336,35.420151
0.225066,-0.196335,-8.830266,0.000522,-0.000242,-0.000103,-30.189857,-6.293336,35.420151
0.234644,-0.196335,-8.830266,0.001055,0.000290,-0.000236,-30.368494,-8.630861,35.938492
0.234644,-0.196335,-8.830266,0.001055,0.000290,-0.000236,-30.368494,-8.630861,35.938492
0.244221,-0.191546,-8.830266,0.000256,0.000956,0.000164,-30.368494,-8.630861,35.938492
0.244221,-0.191546,-8.830266,0.000256,0.000956,0.000164,-30.368494,-8.630861,35.938492
0.220278,-0.191546,-8.825478,0.000522,0.000290,-0.000103,-30.368494,-8.630861,35.938492
0.220278,-0.191546,-8.825478,0.000522,0.000290,-0.000103,-30.368494,-8.630861,35.938492
0.249010,-0.191546,-8.830266,0.000655,-0.000242,-0.000103,-30.368494,-8.630861,35.938492
0.249010,-0.191546,-8.830266,0.000655,-0.000242,-0.000103,-30.368494,-8.630861,35.938492
0.229855,-0.191546,-8.825478,-0.000144,-0.000376,0.000164,-30.368494,-8.630861,35.938492
0.229855,-0.191546,-8.825478,-0.000144,-0.000376,0.000164,-30.368494,-8.630861,35.938492
0.225066,-0.186757,-8.815900,0.001188,-0.000775,0.000164,-30.368494,-8.630861,35.938492
0.244221,-0.191546,-8.830266,0.000256,0.000290,0.000297,-31.797600,-4.675050,35.938492
0.244221,-0.191546,-8.830266,0.000256,0.000290,0.000297,-31.797600,-4.675050,35.938492
0.234644,-0.191546,-8.835054,0.000655,-0.000109,0.000696,-31.797600,-4.675050,35.938492
0.234644,-0.191546,-8.835054,0.000655,-0.000109,0.000696,-31.797600,-4.675050,35.938492
0.234644,-0.186757,-8.835054,0.000522,-0.000642,0.001362,-31.797600,-4.675050,35.938492
0.234644,-0.186757,-8.835054,0.000522,-0.000642,0.001362,-31.797600,-4.675050,35.938492
0.239432,-0.191546,-8.825478,-0.000011,0.000690,0.000164,-31.797600,-4.675050,35.938492
0.239432,-0.191546,-8.825478,-0.000011,0.000690,0.000164,-31.797600,-4.675050,35.938492
0.234644,-0.205912,-8.825478,-0.000410,0.000690,0.001096,-31.797600,-4.675050,35.938492
0.234644,-0.205912,-8.825478,-0.000410,0.000690,0.001096,-31.797600,-4.675050,35.938492
0.215489,-0.191546,-8.839843,-0.000144,-0.000109,0.000696,-31.797600,-4.675050,35.938492
0.215489,-0.191546,-8.839843,-0.000144,-0.000109,0.000696,-31.797600,-4.675050,35.938492
0.234644,-0.201123,-8.844632,0.000921,-0.000376,0.000430,-30.904409,-7.372194,36.111275
0.234644,-0.205912,-8.825478,0.001055,-0.000242,-0.000502,-30.904409,-7.372194,36.111275
0.234644,-0.205912,-8.825478,0.001055,-0.000242,-0.000502,-30.904409,-7.372194,36.111275
0.234644,-0.186757,-8.825478,0.000389,0.000024,-0.000236,-30.904409,-7.372194,36.111275
0.234644,-0.186757,-8.825478,0.000389,0.000024,-0.000236,-30.904409,-7.372194,36.111275
0.234644,-0.191546,-8.839843,0.000655,0.000024,-0.000901,-30.904409,-7.372194,36.111275
0.234644,-0.191546,-8.839843,0.000655,0.000024,-0.000901,-30.904409,-7.372194,36.111275
0.229855,-0.181969,-8.844632,-0.000943,-0.000109,-0.000502,-30.904409,-7.372194,36.111275
0.229855,-0.181969,-8.844632,-0.000943,-0.000109,-0.000502,-30.904409,-7.372194,36.111275
0.239432,-0.196335,-8.844632,-0.001209,0.000157,-0.000236,-30.904409,-7.372194,36.111275
0.239432,-0.196335,-8.844632,-0.001209,0.000157,-0.000236,-30.904409,-7.372194,36.111275
0.239432,-0.201123,-8.858997,0.000522,-0.000109,-0.000236,-30.189857,-7.012574,34.383461
0.225066,-0.191546,-8.849421,0.000921,-0.000376,0.000430,-30.189857,-7.012574,34.383461
0.225066,-0.191546,-8.849421,0.000921,-0.000376,0.000430,-30.189857,-7.012574,34.383461
0.229855,-0.191546,-8.858997,-0.001209,-0.000642,0.000031,-30.189857,-7.012574,34.383461
0.229855,-0.191546,-8.858997,-0.001209,-0.000642,0.000031,-30.189857,-7.012574,34.383461
0.225066,-0.186757,-8.858997,-0.000943,0.000024,0.000563,-30.189857,-7.012574,34.383461
0.225066,-0.186757,-8.858997,-0.000943,0.000024,0.000563,-30.189857,-7.012574,34.383461
0.215489,-0.196335,-8.830266,-0.001076,-0.000242,-0.000103,-30.189857,-7.012574,34.383461
0.215489,-0.196335,-8.830266,-0.001076,-0.000242,-0.000103,-30.189857,-7.012574,34.383461
0.220278,-0.196335,-8.849421,-0.000144,0.000423,0.000031,-30.189857,-7.012574,34.383461
0.220278,-0.196335,-8.849421,-0.000144,0.000423,0.000031,-30.189857,-7.012574,34.383461
0.244221,-0.196335,-8.835054,0.000123,0.000024,0.000031,-29.832581,-8.091432,35.765713
0.244221,-0.196335,-8.835054,0.000123,0.000024,0.000031,-29.832581,-8.091432,35.765713
0.234644,-0.181969,-8.858997,0.000256,0.000690,-0.000369,-29.832581,-8.091432,35.765713
0.229855,-0.186757,-8.854209,-0.000277,0.000290,-0.000236,-29.832581,-8.091432,35.765713
0.229855,-0.186757,-8.854209,-0.000277,0.000290,-0.000236,-29.832581,-8.091432,35.765713
0.229855,-0.191546,-8.844632,0.000655,0.000956,0.000430,-29.832581,-8.091432,35.765713
0.229855,-0.191546,-8.844632,0.000655,0.000956,0.000430,-29.832581,-8.091432,35.765713
0.244221,-0.181969,-8.825478,0.000655,0.000690,-0.000369,-29.832581,-8.091432,35.765713
0.244221,-0.181969,-8.825478,0.000655,0.000690,-0.000369,-29.832581,-8.091432,35.765713
0.229855,-0.191546,-8.854209,0.000256,0.000423,-0.000901,-29.832581,-8.091432,35.765713
0.229855,-0.191546,-8.854209,0.000256,0.000423,-0.000901,-29.832581,-8.091432,35.765713
0.220278,-0.191546,-8.868575,0.000256,0.000823,-0.000635,-29.832581,-8.091432,35.765713
0.220278,-0.191546,-8.868575,0.000256,0.000823,-0.000635,-29.832581,-8.091432,35.765713
0.229855,-0.181969,-8.854209,-0.000410,0.000423,0.000430,-32.333515,-7.731813,36.111275
0.234644,-0.201123,-8.844632,0.000389,0.000823,0.000696,-32.333515,-7.731813,36.111275
0.234644,-0.201123,-8.844632,0.000389,0.000823,0.000696,-32.333515,-7.731813,36.111275
0.225066,-0.191546,-8.844632,0.000389,0.000290,0.001096,-32.333515,-7.731813,36.111275
0.225066,-0.191546,-8.844632,0.000389,0.000290,0.001096,-32.333515,-7.731813,36.111275
0.239432,-0.205912,-8.825478,0.000389,0.000024,-0.000103,-32.333515,-7.731813,36.111275
0.239432,-0.205912,-8.825478,0.000389,0.000024,-0.000103,-32.333515,-7.731813,36.111275
0.225066,-0.186757,-8.806323,0.000655,-0.000109,-0.000236,-32.333515,-7.731813,36.111275
0.225066,-0.186757,-8.806323,0.000655,-0.000109,-0.000236,-32.333515,-7.731813,36.111275
0.225066,-0.196335,-8.830266,0.000655,-0.000109,-0.000103,-32.333515,-7.731813,36.111275
0.225066,-0.196335,-8.830266,0.000655,-0.000109,-0.000103,-32.333515,-7.731813,36.111275
0.239432,-0.191546,-8.839843,-0.000543,0.000157,0.000963,-31.440325,-6.832765,35.938492
0.239432,-0.191546,-8.839843,-0.000543,0.000157,0.000963,-31.440325,-6.832765,35.938492
0.225066,-0.191546,-8.820688,-0.000543,0.000423,0.000164,-31.440325,-6.832765,35.938492
0.234644,-0.186757,-8.844632,-0.000144,-0.000642,0.000430,-31.440325,-6.832765,35.938492
0.234644,-0.186757,-8.844632,-0.000144,-0.000642,0.000430,-31.440325,-6.832765,35.938492
0.234644,-0.181969,-8.820688,0.000655,0.000423,0.000164,-31.440325,-6.832765,35.938492
0.234644,-0.181969,-8.820688,0.000655,0.000423,0.000164,-31.440325,-6.832765,35.938492
0.239432,-0.196335,-8.830266,-0.000011,-0.000242,0.000164,-31.440325,-6.832765,35.938492
0.239432,-0.196335,-8.830266,-0.000011,-0.000242,0.000164,-31.440325,-6.832765,35.938492
0.229855,-0.177180,-8.830266,-0.000011,-0.000376,0.000164,-31.440325,-6.832765,35.938492
0.229855,-0.177180,-8.830266,-0.000011,-0.000376,0.000164,-31.440325,-6.832765,35.938492
0.244221,-0.172391,-8.839843,0.000389,0.000557,-0.000103,-31.797600,-7.911623,36.284054
0.244221,-0.172391,-8.839843,0.000389,0.000557,-0.000103,-31.797600,-7.911623,36.284054
0.253798,-0.186757,-8.825478,0.000522,0.000557,0.000830,-31.797600,-7.911623,36.284054
0.244221,-0.201123,-8.858997,0.000389,0.000290,0.000164,-31.797600,-7.911623,36.284054
0.244221,-0.201123,-8.858997,0.000389,0.000290,0.000164,-31.797600,-7.911623,36.284054
0.234644,-0.186757,-8.830266,-0.000011,0.000024,0.000563,-31.797600,-7.911623,36.284054
0.234644,-0.186757,-8.830266,-0.000011,0.000024,0.000563,-31.797600,-7.911623,36.284054
0.244221,-0.196335,-8.830266,-0.000144,-0.000242,0.000164,-31.797600,-7.911623,36.284054
0.244221,-0.196335,-8.830266,-0.000144,-0.000242,0.000164,-31.797600,-7.911623,36.284054
0.229855,-0.196335,-8.830266,-0.000011,0.000024,0.000031,-31.797600,-7.911623,36.284054
0.229855,-0.196335,-8.830266,-0.000011,0.000024,0.000031,-31.797600,-7.911623,36.284054
0.249010,-0.201123,-8.858997,-0.000144,0.000290,0.000430,-31.976238,-7.731813,37.493523
0.249010,-0.201123,-8.858997,-0.000144,0.000290,0.000430,-31.976238,-7.731813,37.493523
0.239432,-0.201123,-8.844632,-0.000144,0.000823,0.000031,-31.976238,-7.731813,37.493523
0.239432,-0.201123,-8.844632,-0.000144,0.000823,0.000031,-31.976238,-7.731813,37.493523
0.225066,-0.191546,-8.849421,-0.000144,0.002021,0.000164,-31.976238,-7.731813,37.493523
0.244221,-0.205912,-8.844632,0.000655,0.000290,-0.000768,-31.976238,-7.731813,37.493523
0.244221,-0.205912,-8.844632,0.000655,0.000290,-0.000768,-31.976238,-7.731813,37.493523
0.229855,-0.191546,-8.820688,-0.000011,-0.000376,0.000696,-31.976238,-7.731813,37.493523
0.229855,-0.191546,-8.820688,-0.000011,-0.000376,0.000696,-31.976238,-7.731813,37.493523
0.234644,-0.191546,-8.830266,0.000123,-0.000509,0.000164,-31.976238,-7.731813,37.493523
0.234644,-0.191546,-8.830266,0.000123,-0.000509,0.000164,-31.976238,-7.731813,37.493523
0.229855,-0.186757,-8.839843,0.000389,-0.000376,0.000696,-31.618961,-7.012574,36.111275
0.229855,-0.186757,-8.839843,0.000389,-0.000376,0.000696,-31.618961,-7.012574,36.111275
0.234644,-0.177180,-8.854209,0.000921,0.000423,0.000430,-31.618961,-7.012574,36.111275
0.234644,-0.177180,-8.854209,0.000921,0.000423,0.000430,-31.618961,-7.012574,36.111275
0.225066,-0.186757,-8.849421,-0.000011,0.000157,-0.000768,-31.618961,-7.012574,36.111275
0.229855,-0.191546,-8.849421,0.000921,-0.000642,-0.000236,-31.618961,-7.012574,36.111275
0.229855,-0.191546,-8.849421,0.000921,-0.000642,-0.000236,-31.618961,-7.012574,36.111275
0.225066,-0.186757,-8.844632,-0.000277,-0.001174,0.001096,-31.618961,-7.012574,36.111275
0.225066,-0.186757,-8.844632,-0.000277,-0.001174,0.001096,-31.618961,-7.012574,36.111275
0.225066,-0.191546,-8.815900,0.000256,0.000024,0.001362,-31.618961,-7.012574,36.111275
0.225066,-0.191546,-8.815900,0.000256,0.000024,0.001362,-31.618961,-7.012574,36.111275
0.225066,-0.196335,-8.830266,-0.000277,0.000423,0.000830,-30.547132,-5.933717,34.729023
0.225066,-0.196335,-8.830266,-0.000277,0.000423,0.000830,-30.547132,-5.933717,34.729023
0.220278,-0.191546,-8.811111,0.000123,-0.000109,0.000164,-30.547132,-5.933717,34.729023
0.220278,-0.191546,-8.811111,0.000123,-0.000109,0.000164,-30.547132,-5.933717,34.729023
0.239432,-0.186757,-8.873363,0.000123,-0.000242,0.000297,-30.547132,-5.933717,34.729023
0.239432,-0.186757,-8.873363,0.000123,-0.000242,0.000297,-30.547132,-5.933717,34.729023
0.234644,-0.177180,-8.820688,-0.000144,0.000557,-0.000502,-30.547132,-5.933717,34.729023
0.229855,-0.186757,-8.825478,0.000256,0.000024,-0.000236,-30.547132,-5.933717,34.729023
0.229855,-0.186757,-8.825478,0.000256,0.000024,-0.000236,-30.547132,-5.933717,34.729023
0.229855,-0.201123,-8.830266,-0.000144,0.000557,-0.001035,-30.547132,-5.933717,34.729023
0.229855,-0.201123,-8.830266,-0.000144,0.000557,-0.001035,-30.547132,-5.933717,34.729023
0.225066,-0.191546,-8.844632,-0.000676,0.000024,0.000164,-30.547132,-5.933717,34.729023
0.225066,-0.191546,-8.844632,-0.000676,0.000024,0.000164,-30.547132,-5.933717,34.729023
0.249010,-0.196335,-8.830266,-0.000676,-0.000109,0.000430,-30.547132,-5.933717,34.729023
0.249010,-0.196335,-8.830266,-0.000676,-0.000109,0.000430,-30.547132,-5.933717,34.729023
0.220278,-0.196335,-8.849421,0.000123,-0.000109,-0.000768,-30.547132,-5.933717,34.729023
0.220278,-0.196335,-8.849421,0.000123,-0.000109,-0.000768,-30.547132,-5.933717,34.729023
0.229855,-0.196335,-8.835054,-0.000144,0.000290,0.000164,-30.547132,-5.933717,34.729023
0.225066,-0.181969,-8.825478,0.000256,-0.000242,0.001229,-30.547132,-5.933717,34.729023
0.225066,-0.181969,-8.825478,0.000256,-0.000242,0.001229,-30.547132,-5.933717,34.729023
0.244221,-0.191546,-8.854209,0.000655,0.000157,0.000297,-30.547132,-5.933717,34.729023
0.244221,-0.191546,-8.854209,0.000655,0.000157,0.000297,-30.547132,-5.933717,34.729023
0.234644,-0.181969,-8.830266,0.000123,0.000157,-0.000103,-30.547132,-5.933717,34.729023
0.234644,-0.181969,-8.830266,0.000123,0.000157,-0.000103,-30.547132,-5.933717,34.729023
0.239432,-0.186757,-8.839843,-0.000144,0.000690,-0.000369,-30.189857,-7.372194,35.420151
0.239432,-0.186757,-8.839843,-0.000144,0.000690,-0.000369,-30.189857,-7.372194,35.420151
0.234644,-0.191546,-8.844632,-0.000144,0.000290,0.001229,-30.189857,-7.372194,35.420151
0.234644,-0.191546,-8.844632,-0.000144,0.000290,0.001229,-30.189857,-7.372194,35.420151
0.229855,-0.191546,-8.835054,-0.000011,-0.000509,0.000830,-30.189857,-7.372194,35.420151
0.229855,-0.191546,-8.835054,-0.000011,-0.000509,0.000830,-30.189857,-7.372194,35.420151
0.220278,-0.186757,-8.839843,0.000256,0.000423,0.000297,-30.189857,-7.372194,35.420151
0.234644,-0.186757,-8.825478,0.001055,0.000290,0.000696,-30.189857,-7.372194,35.420151
0.234644,-0.186757,-8.825478,0.001055,0.000290,0.000696,-30.189857,-7.372194,35.420151
0.229855,-0.181969,-8.820688,0.001188,0.000157,0.000563,-30.189857,-7.372194,35.420151
0.229855,-0.181969,-8.820688,0.001188,0.000157,0.000563,-30.189857,-7.372194,35.420151
0.229855,-0.181969,-8.830266,0.000123,0.000423,0.000164,-29.118027,-6.293336,35.074585
0.229855,-0.181969,-8.830266,0.000123,0.000423,0.000164,-29.118027,-6.293336,35.074585
0.220278,-0.196335,-8.839843,0.000256,0.000423,-0.000103,-29.118027,-6.293336,35.074585
0.220278,-0.196335,-8.839843,0.000256,0.000423,-0.000103,-29.118027,-6.293336,35.074585
0.234644,-0.191546,-8.849421,0.001055,0.000557,0.000164,-29.118027,-6.293336,35.074585
0.234644,-0.191546,-8.849421,0.001055,0.000557,0.000164,-29.118027,-6.293336,35.074585
0.234644,-0.191546,-8.815900,0.001055,-0.000109,-0.000103,-29.118027,-6.293336,35.074585
0.229855,-0.201123,-8.825478,0.000522,-0.000908,0.000031,-29.118027,-6.293336,35.074585
0.229855,-0.201123,-8.825478,0.000522,-0.000908,0.000031,-29.118027,-6.293336,35.074585
0.229855,-0.177180,-8.839843,0.000522,0.000157,0.000297,-29.118027,-6.293336,35.074585
0.229855,-0.177180,-8.839843,0.000522,0.000157,0.000297,-29.118027,-6.293336,35.074585
0.244221,-0.186757,-8.854209,0.000788,0.000290,-0.000103,-31.976238,-8.810671,37.147961
0.244221,-0.186757,-8.854209,0.000788,0.000290,-0.000103,-31.976238,-8.810671,37.147961
0.244221,-0.191546,-8.849421,-0.000277,0.000423,-0.000369,-31.976238,-8.810671,37.147961
0.244221,-0.191546,-8.849421,-0.000277,0.000423,-0.000369,-31.976238,-8.810671,37.147961
0.229855,-0.186757,-8.839843,0.000522,0.000557,-0.000103,-31.976238,-8.810671,37.147961
0.229855,-0.186757,-8.839843,0.000522,0.000557,-0.000103,-31.976238,-8.810671,37.147961
0.249010,-0.186757,-8.835054,0.001055,0.000423,0.000031,-31.976238,-8.810671,37.147961
0.249010,-0.186757,-8.835054,0.001055,0.000423,0.000031,-31.976238,-8.810671,37.147961
0.239432,-0.181969,-8.815900,0.000921,0.000823,0.000696,-31.976238,-8.810671,37.147961
0.244221,-0.181969,-8.820688,-0.000543,0.000024,0.000031,-31.976238,-8.810671,37.147961
0.244221,-0.181969,-8.820688,-0.000543,0.000024,0.000031,-31.976238,-8.810671,37.147961
0.229855,-0.201123,-8.854209,-0.000810,-0.000509,-0.000502,-30.725771,-7.192384,34.556244
0.229855,-0.201123,-8.854209,-0.000810,-0.000509,-0.000502,-30.725771,-7.192384,34.556244
0.225066,-0.191546,-8.844632,-0.000011,-0.000242,-0.000901,-30.725771,-7.192384,34.556244
0.225066,-0.191546,-8.844632,-0.000011,-0.000242,-0.000901,-30.725771,-7.192384,34.556244
0.229855,-0.186757,-8.825478,-0.000144,0.000157,0.000430,-30.725771,-7.192384,34.556244
0.229855,-0.186757,-8.825478,-0.000144,0.000157,0.000430,-30.725771,-7.192384,34.556244
0.229855,-0.196335,-8.830266,-0.000011,0.000557,-0.000369,-30.725771,-7.192384,34.556244
0.229855,-0.196335,-8.830266,-0.000011,0.000557,-0.000369,-30.725771,-7.192384,34.556244
0.225066,-0.201123,-8.830266,0.000256,-0.000109,-0.000236,-30.725771,-7.192384,34.556244
0.234644,-0.191546,-8.839843,-0.000144,0.000157,0.000297,-30.725771,-7.192384,34.556244
0.234644,-0.191546,-8.839843,-0.000144,0.000157,0.000297,-30.725771,-7.192384,34.556244
0.220278,-0.172391,-8.820688,-0.000011,0.000024,-0.000103,-30.189857,-8.810671,37.493523
0.220278,-0.172391,-8.820688,-0.000011,0.000024,-0.000103,-30.189857,-8.810671,37.493523
0.234644,-0.191546,-8.849421,0.000522,-0.000376,0.000963,-30.189857,-8.810671,37.493523
0.234644,-0.191546,-8.849421,0.000522,-0.000376,0.000963,-30.189857,-8.810671,37.493523
0.239432,-0.191546,-8.849421,0.001055,-0.000642,0.000031,-30.189857,-8.810671,37.493523
0.239432,-0.191546,-8.849421,0.001055,-0.000642,0.000031,-30.189857,-8.810671,37.493523
0.244221,-0.191546,-8.835054,0.000522,0.000024,-0.001035,-30.189857,-8.810671,37.493523
0.244221,-0.191546,-8.835054,0.000522,0.000024,-0.001035,-30.189857,-8.810671,37.493523
0.229855,-0.196335,-8.815900,-0.000410,0.000024,-0.000103,-30.189857,-8.810671,37.493523
0.229855,-0.196335,-8.815900,-0.000410,0.000024,-0.000103,-30.189857,-8.810671,37.493523
0.225066,-0.186757,-8.849421,-0.001076,-0.000109,0.000430,-30.189857,-8.810671,37.493523
0.234644,-0.186757,-8.868575,-0.000011,-0.000109,0.000430,-28.760752,-6.652955,35.074585
0.234644,-0.186757,-8.868575,-0.000011,-0.000109,0.000430,-28.760752,-6.652955,35.074585
0.225066,-0.191546,-8.854209,-0.000810,-0.000109,0.000164,-28.760752,-6.652955,35.074585
0.225066,-0.191546,-8.854209,-0.000810,-0.000109,0.000164,-28.760752,-6.652955,35.074585
0.239432,-0.196335,-8.815900,-0.000543,-0.000242,-0.001035,-28.760752,-6.652955,35.074585
0.239432,-0.196335,-8.815900,-0.000543,-0.000242,-0.001035,-28.760752,-6.652955,35.074585
0.225066,-0.186757,-8.820688,-0.000144,0.000024,-0.000369,-28.760752,-6.652955,35.074585
0.225066,-0.186757,-8.820688,-0.000144,0.000024,-0.000369,-28.760752,-6.652955,35.074585
0.229855,-0.191546,-8.820688,-0.000011,-0.000109,0.000563,-28.760752,-6.652955,35.074585
0.229855,-0.191546,-8.820688,-0.000011,-0.000109,0.000563,-28.760752,-6.652955,35.074585
0.229855,-0.196335,-8.844632,0.000655,-0.000242,0.000164,-28.760752,-6.652955,35.074585
0.234644,-0.186757,-8.835054,-0.000277,0.001222,0.000830,-28.760752,-6.652955,35.074585
0.234644,-0.186757,-8.835054,-0.000277,0.001222,0.000830,-28.760752,-6.652955,35.074585
0.225066,-0.172391,-8.844632,-0.001209,0.000290,0.000963,-32.154877,-6.832765,35.938492
0.225066,-0.172391,-8.844632,-0.001209,0.000290,0.000963,-32.154877,-6.832765,35.938492
0.239432,-0.201123,-8.844632,-0.000011,0.001089,-0.000369,-32.154877,-6.832765,35.938492
0.239432,-0.201123,-8.844632,-0.000011,0.001089,-0.000369,-32.154877,-6.832765,35.938492
0.244221,-0.186757,-8.839843,0.000522,0.000157,0.000164,-32.154877,-6.832765,35.938492
0.244221,-0.186757,-8.839843,0.000522,0.000157,0.000164,-32.154877,-6.832765,35.938492
0.234644,-0.191546,-8.858997,-0.000277,0.000423,-0.000103,-32.154877,-6.832765,35.938492
0.234644,-0.191546,-8.858997,-0.000277,0.000423,-0.000103,-32.154877,-6.832765,35.938492
0.229855,-0.196335,-8.830266,-0.000810,0.001222,0.000297,-32.154877,-6.832765,35.938492
0.229855,-0.196335,-8.830266,-0.000810,0.001222,0.000297,-32.154877,-6.832765,35.938492
0.229855,-0.191546,-8.830266,-0.001342,0.000157,0.000031,-32.154877,-6.832765,35.938492
0.220278,-0.181969,-8.839843,-0.000943,-0.000109,-0.000768,-30.189857,-7.372194,35.074585
0.220278,-0.181969,-8.839843,-0.000943,-0.000109,-0.000768,-30.189857,-7.372194,35.074585
0.225066,-0.201123,-8.849421,-0.000543,0.000823,-0.000768,-30.189857,-7.372194,35.074585
0.225066,-0.201123,-8.849421,-0.000543,0.000823,-0.000768,-30.189857,-7.372194,35.074585
0.205912,-0.210700,-8.863787,-0.000543,0.000557,-0.000103,-30.189857,-7.372194,35.074585
0.205912,-0.210700,-8.863787,-0.000543,0.000557,-0.000103,-30.189857,-7.372194,35.074585
0.229855,-0.191546,-8.811111,-0.001875,0.000423,0.000031,-30.189857,-7.372194,35.074585
0.229855,-0.191546,-8.811111,-0.001875,0.000423,0.000031,-30.189857,-7.372194,35.074585
0.249010,-0.177180,-8.815900,-0.002541,0.001222,0.000696,-30.189857,-7.372194,35.074585
0.249010,-0.177180,-8.815900,-0.002541,0.001222,0.000696,-30.189857,-7.372194,35.074585
0.249010,-0.186757,-8.849421,-0.002008,-0.000109,0.000164,-30.189857,-7.372194,35.074585
0.244221,-0.210700,-8.849421,-0.001342,0.000157,0.000430,-30.725771,-7.192384,35.592930
0.244221,-0.210700,-8.849421,-0.001342,0.000157,0.000430,-30.725771,-7.192384,35.592930
0.225066,-0.186757,-8.858997,-0.000410,-0.000509,0.000696,-30.725771,-7.192384,35.592930
0.225066,-0.186757,-8.858997,-0.000410,-0.000509,0.000696,-30.725771,-7.192384,35.592930
0.244221,-0.191546,-8.849421,-0.001475,-0.000109,-0.000103,-30.725771,-7.192384,35.592930
0.244221,-0.191546,-8.849421,-0.001475,-0.000109,-0.000103,-30.725771,-7.192384,35.592930
0.229855,-0.181969,-8.815900,-0.001076,0.001089,-0.000103,-30.725771,-7.192384,35.592930
0.229855,-0.181969,-8.815900,-0.001076,0.001089,-0.000103,-30.725771,-7.192384,35.592930
0.220278,-0.177180,-8.815900,-0.001342,0.001089,0.000031,-30.725771,-7.192384,35.592930
0.220278,-0.177180,-8.815900,-0.001342,0.001089,0.000031,-30.725771,-7.192384,35.592930
0.234644,-0.191546,-8.811111,-0.000676,-0.000109,0.000031,-30.725771,-7.192384,35.592930
0.234644,-0.191546,-8.811111,-0.000676,-0.000109,0.000031,-30.725771,-7.192384,35.592930
0.229855,-0.181969,-8.820688,0.000389,-0.000109,0.000297,-31.618961,-7.012574,36.456837
0.215489,-0.167603,-8.830266,-0.000810,0.000157,0.000164,-31.618961,-7.012574,36.456837
0.215489,-0.167603,-8.830266,-0.000810,0.000157,0.000164,-31.618961,-7.012574,36.456837
0.229855,-0.191546,-8.820688,-0.000011,0.000290,-0.000236,-31.618961,-7.012574,36.456837
0.229855,-0.191546,-8.820688,-0.000011,0.000290,-0.000236,-31.618961,-7.012574,36.456837
0.234644,-0.186757,-8.825478,-0.000676,-0.000109,0.000430,-31.618961,-7.012574,36.456837
0.234644,-0.186757,-8.825478,-0.000676,-0.000109,0.000430,-31.618961,-7.012574,36.456837
0.229855,-0.172391,-8.830266,-0.000543,-0.000376,0.000430,-31.618961,-7.012574,36.456837
0.229855,-0.172391,-8.830266,-0.000543,-0.000376,0.000430,-31.618961,-7.012574,36.456837
0.229855,-0.172391,-8.830266,-0.000011,-0.000509,-0.000103,-31.618961,-7.012574,36.456837
0.229855,-0.172391,-8.830266,-0.000011,-0.000509,-0.000103,-31.618961,-7.012574,36.456837
0.229855,-0.181969,-8.830266,-0.000543,0.000557,-0.000103,-30.189857,-6.293336,35.420151
0.229855,-0.201123,-8.830266,-0.000011,0.000290,0.000297,-30.189857,-6.293336,35.420151
0.229855,-0.201123,-8.830266,-0.000011,0.000290,0.000297,-30.189857,-6.293336,35.420151
0.244221,-0.191546,-8.844632,-0.000676,-0.000509,0.000164,-30.189857,-6.293336,35.420151
0.244221,-0.191546,-8.844632,-0.000676,-0.000509,0.000164,-30.189857,-6.293336,35.420151
0.239432,-0.186757,-8.811111,-0.000543,-0.000109,-0.000236,-30.189857,-6.293336,35.420151
0.239432,-0.186757,-8.811111,-0.000543,-0.000109,-0.000236,-30.189857,-6.293336,35.420151
0.239432,-0.186757,-8.825478,-0.001342,-0.000242,0.000297,-30.189857,-6.293336,35.420151
0.239432,-0.186757,-8.825478,-0.001342,-0.000242,0.000297,-30.189857,-6.293336,35.420151
0.239432,-0.191546,-8.844632,-0.000144,0.000290,0.000963,-30.189857,-6.293336,35.420151
0.239432,-0.191546,-8.844632,-0.000144,0.000290,0.000963,-30.189857,-6.293336,35.420151
0.229855,-0.186757,-8.825478,-0.000410,-0.000775,-0.000236,-30.189857,-6.652955,35.074585
0.229855,-0.186757,-8.825478,-0.000410,-0.000775,-0.000236,-30.189857,-6.652955,35.074585
0.229855,-0.196335,-8.844632,-0.001076,-0.000242,-0.000103,-30.189857,-6.652955,35.074585
0.239432,-0.181969,-8.835054,-0.001475,-0.000642,0.000430,-30.189857,-6.652955,35.074585
0.239432,-0.181969,-8.835054,-0.001475,-0.000642,0.000430,-30.189857,-6.652955,35.074585
0.239432,-0.186757,-8.820688,-0.002141,0.000823,-0.000236,-30.189857,-6.652955,35.074585
0.239432,-0.186757,-8.820688,-0.002141,0.000823,-0.000236,-30.189857,-6.652955,35.074585
0.244221,-0.186757,-8.858997,-0.001076,-0.000109,-0.001035,-30.189857,-6.652955,35.074585
0.244221,-0.186757,-8.858997,-0.001076,-0.000109,-0.001035,-30.189857,-6.652955,35.074585
0.249010,-0.186757,-8.839843,-0.000810,-0.000376,-0.000369,-30.189857,-6.652955,35.074585
0.249010,-0.186757,-8.839843,-0.000810,-0.000376,-0.000369,-30.189857,-6.652955,35.074585
0.249010,-0.181969,-8.830266,-0.000144,-0.000642,-0.000103,-30.189857,-6.652955,35.074585
0.249010,-0.181969,-8.830266,-0.000144,-0.000642,-0.000103,-30.189857,-6.652955,35.074585
0.229855,-0.177180,-8.825478,-0.000810,-0.000908,-0.000502,-30.189857,-7.731813,35.765713
0.234644,-0.172391,-8.825478,0.000788,0.000690,0.000297,-30.189857,-7.731813,35.765713
0.234644,-0.172391,-8.825478,0.000788,0.000690,0.000297,-30.189857,-7.731813,35.765713
0.239432,-0.186757,-8.839843,0.000655,0.000423,0.000563,-30.189857,-7.731813,35.765713
0.239432,-0.186757,-8.839843,0.000655,0.000423,0.000563,-30.189857,-7.731813,35.765713
0.229855,-0.191546,-8.839843,0.000788,0.000024,0.000430,-30.189857,-7.731813,35.765713
0.229855,-0.191546,-8.839843,0.000788,0.000024,0.000430,-30.189857,-7.731813,35.765713
0.225066,-0.177180,-8.830266,-0.000011,-0.000109,0.000430,-30.189857,-7.731813,35.765713
0.225066,-0.177180,-8.830266,-0.000011,-0.000109,0.000430,-30.189857,-7.731813,35.765713
0.225066,-0.177180,-8.830266,0.000389,0.000557,0.000963,-30.189857,-7.731813,35.765713
0.225066,-0.177180,-8.830266,0.000389,0.000557,0.000963,-30.189857,-7.731813,35.765713
0.239432,-0.186757,-8.835054,0.000522,0.000157,-0.000635,-31.261686,-7.731813,36.802399
0.239432,-0.186757,-8.835054,0.000522,0.000157,-0.000635,-31.261686,-7.731813,36.802399
0.234644,-0.191546,-8.811111,0.000522,-0.000109,0.000164,-31.261686,-7.731813,36.802399
0.239432,-0.186757,-8.844632,0.001188,-0.000242,-0.000369,-31.261686,-7.731813,36.802399
0.239432,-0.186757,-8.844632,0.001188,-0.000242,-0.000369,-31.261686,-7.731813,36.802399
0.239432,-0.186757,-8.839843,0.001055,-0.000642,-0.000768,-31.261686,-7.731813,36.802399
0.239432,-0.186757,-8.839843,0.001055,-0.000642,-0.000768,-31.261686,-7.731813,36.802399
0.234644,-0.186757,-8.835054,0.000655,-0.001041,0.000031,-31.261686,-7.731813,36.802399
0.234644,-0.186757,-8.835054,0.000655,-0.001041,0.000031,-31.261686,-7.731813,36.802399
0.225066,-0.181969,-8.835054,0.000123,-0.000109,0.000031,-31.261686,-7.731813,36.802399
0.225066,-0.181969,-8.835054,0.000123,-0.000109,0.000031,-31.261686,-7.731813,36.802399
0.239432,-0.177180,-8.830266,0.000921,-0.000509,0.000430,-28.582113,-8.630861,35.592930
0.239432,-0.177180,-8.830266,0.000921,-0.000509,0.000430,-28.582113,-8.630861,35.592930
0.225066,-0.186757,-8.825478,-0.000011,0.000157,0.000696,-28.582113,-8.630861,35.592930
0.225066,-0.186757,-8.825478,0.000655,-0.000908,0.000430,-28.582113,-8.630861,35.592930
0.225066,-0.186757,-8.825478,0.000655,-0.000908,0.000430,-28.582113,-8.630861,35.592930
0.220278,-0.177180,-8.854209,0.000522,-0.000242,0.000696,-28.582113,-8.630861,35.592930
0.220278,-0.177180,-8.854209,0.000522,-0.000242,0.000696,-28.582113,-8.630861,35.592930
0.239432,-0.191546,-8.844632,0.000522,0.000690,0.000430,-28.582113,-8.630861,35.592930
0.239432,-0.191546,-8.844632,0.000522,0.000690,0.000430,-28.582113,-8.630861,35.592930
0.229855,-0.196335,-8.849421,0.000522,0.000290,-0.000236,-28.582113,-8.630861,35.592930
0.229855,-0.196335,-8.849421,0.000522,0.000290,-0.000236,-28.582113,-8.630861,35.592930
0.234644,-0.196335,-8.844632,0.001188,-0.000509,0.000963,-30.547132,-6.652955,35.420151
0.234644,-0.196335,-8.844632,0.001188,-0.000509,0.000963,-30.547132,-6.652955,35.420151
0.229855,-0.191546,-8.835054,0.000788,0.000024,0.000164,-30.547132,-6.652955,35.420151
0.229855,-0.191546,-8.835054,0.000788,0.000024,0.000164,-30.547132,-6.652955,35.420151
0.234644,-0.181969,-8.844632,0.000655,0.000557,-0.000502,-30.547132,-6.652955,35.420151
0.244221,-0.181969,-8.825478,0.000389,0.000290,0.000696,-30.547132,-6.652955,35.420151
0.244221,-0.181969,-8.825478,0.000389,0.000290,0.000696,-30.547132,-6.652955,35.420151
0.249010,-0.177180,-8.854209,0.000123,-0.000775,-0.000236,-30.547132,-6.652955,35.420151
0.249010,-0.177180,-8.854209,0.000123,-0.000775,-0.000236,-30.547132,-6.652955,35.420151
0.249010,-0.196335,-8.825478,0.001055,0.001089,0.000031,-30.547132,-6.652955,35.420151
0.249010,-0.196335,-8.825478,0.001055,0.001089,0.000031,-30.547132,-6.652955,35.420151
0.244221,-0.191546,-8.835054,0.000655,0.001356,0.000430,-30.189857,-8.091432,36.802399
0.244221,-0.191546,-8.835054,0.000655,0.001356,0.000430,-30.189857,-8.091432,36.802399
0.239432,-0.177180,-8.830266,0.001188,0.000157,-0.000236,-30.189857,-8.091432,36.802399
0.239432,-0.177180,-8.830266,0.001188,0.000157,-0.000236,-30.189857,-8.091432,36.802399
0.220278,-0.177180,-8.835054,0.000655,0.000157,0.000430,-30.189857,-8.091432,36.802399
0.244221,-0.177180,-8.815900,0.000522,-0.000242,0.000164,-30.189857,-8.091432,36.802399
0.244221,-0.177180,-8.815900,0.000522,-0.000242,0.000164,-30.189857,-8.091432,36.802399
0.225066,-0.177180,-8.839843,0.001720,0.000557,0.000031,-30.189857,-8.091432,36.802399
0.225066,-0.177180,-8.839843,0.001720,0.000557,0.000031,-30.189857,-8.091432,36.802399
0.225066,-0.191546,-8.811111,0.000655,0.000423,0.000164,-30.189857,-8.091432,36.802399
0.225066,-0.191546,-8.811111,0.000655,0.000423,0.000164,-30.189857,-8.091432,36.802399
0.244221,-0.201123,-8.825478,0.000921,0.000157,0.000696,-31.083048,-8.271241,35.938492
0.244221,-0.201123,-8.825478,0.000921,0.000157,0.000696,-31.083048,-8.271241,35.938492
0.229855,-0.196335,-8.844632,0.001454,-0.000109,0.000563,-31.083048,-8.271241,35.938492
0.229855,-0.196335,-8.844632,0.001454,-0.000109,0.000563,-31.083048,-8.271241,35.938492
0.234644,-0.191546,-8.854209,0.000788,0.000823,-0.000103,-31.083048,-8.271241,35.938492
0.234644,-0.191546,-8.854209,0.000788,0.000823,-0.000103,-31.083048,-8.271241,35.938492
0.244221,-0.177180,-8.820688,0.001321,0.000290,0.000031,-31.083048,-8.271241,35.938492
0.234644,-0.181969,-8.811111,0.000522,0.000290,0.000164,-31.083048,-8.271241,35.938492
0.234644,-0.181969,-8.811111,0.000522,0.000290,0.000164,-31.083048,-8.271241,35.938492
0.234644,-0.191546,-8.839843,0.001987,-0.000509,0.000563,-31.083048,-8.271241,35.938492
0.234644,-0.191546,-8.839843,0.001987,-0.000509,0.000563,-31.083048,-8.271241,35.938492
0.249010,-0.196335,-8.858997,0.001454,0.000024,0.000164,-31.083048,-8.271241,35.938492
0.249010,-0.196335,-8.858997,0.001454,0.000024,0.000164,-31.083048,-8.271241,35.938492
0.244221,-0.181969,-8.868575,0.000123,0.000024,0.001362,-30.368494,-7.192384,35.592930
0.244221,-0.181969,-8.868575,0.000123,0.000024,0.001362,-30.368494,-7.192384,35.592930
0.225066,-0.177180,-8.849421,0.000522,-0.000109,0.000963,-30.368494,-7.192384,35.592930
0.225066,-0.177180,-8.849421,0.000522,-0.000109,0.000963,-30.368494,-7.192384,35.592930
0.239432,-0.181969,-8.849421,-0.000410,0.000024,0.000563,-30.368494,-7.192384,35.592930
0.244221,-0.181969,-8.849421,-0.000144,0.000423,-0.000236,-30.368494,-7.192384,35.592930
0.244221,-0.181969,-8.849421,-0.000144,0.000423,-0.000236,-30.368494,-7.192384,35.592930
0.225066,-0.186757,-8.849421,0.000256,0.000157,0.000430,-30.368494,-7.192384,35.592930
0.225066,-0.186757,-8.849421,0.000256,0.000157,0.000430,-30.368494,-7.192384,35.592930
0.225066,-0.181969,-8.863787,0.000256,0.000157,0.001362,-30.368494,-7.192384,35.592930
0.225066,-0.181969,-8.863787,0.000256,0.000157,0.001362,-30.368494,-7.192384,35.592930
0.253798,-0.201123,-8.844632,0.000788,0.000290,0.000430,-31.440325,-7.192384,34.556244
0.253798,-0.201123,-8.844632,0.000788,0.000290,0.000430,-31.440325,-7.192384,34.556244
0.234644,-0.177180,-8.825478,-0.000410,0.000690,0.000430,-31.440325,-7.192384,34.556244
0.234644,-0.177180,-8.825478,-0.000410,0.000690,0.000430,-31.440325,-7.192384,34.556244
0.229855,-0.177180,-8.830266,-0.000543,0.000823,0.000830,-31.440325,-7.192384,34.556244
0.229855,-0.177180,-8.830266,-0.000543,0.000823,0.000830,-31.440325,-7.192384,34.556244
0.229855,-0.186757,-8.825478,0.000123,0.000157,0.000164,-31.440325,-7.192384,34.556244
0.239432,-0.181969,-8.835054,0.000256,0.000024,-0.000236,-31.440325,-7.192384,34.556244
0.239432,-0.181969,-8.835054,0.000256,0.000024,-0.000236,-31.440325,-7.192384,34.556244
0.239432,-0.181969,-8.835054,-0.000676,0.000290,0.000031,-31.440325,-7.192384,34.556244
0.239432,-0.181969,-8.835054,-0.000676,0.000290,0.000031,-31.440325,-7.192384,34.556244
0.229855,-0.158025,-8.858997,-0.000676,0.000956,0.001762,-30.368494,-7.552003,36.284054
0.229855,-0.158025,-8.858997,-0.000676,0.000956,0.001762,-30.368494,-7.552003,36.284054
0.205912,-0.153237,-8.830266,0.000522,0.000157,0.009751,-30.368494,-7.552003,36.284054
0.205912,-0.153237,-8.830266,0.000522,0.000157,0.009751,-30.368494,-7.552003,36.284054
0.244221,-0.239432,-8.825478,0.000788,0.000157,0.015477,-30.368494,-7.552003,36.284054
0.244221,-0.239432,-8.825478,0.000788,0.000157,0.015477,-30.368494,-7.552003,36.284054
0.225066,-0.186757,-8.839843,0.000655,-0.000908,0.004824,-30.368494,-7.552003,36.284054
0.244221,-0.186757,-8.830266,-0.000277,0.000290,0.000430,-30.368494,-7.552003,36.284054
0.244221,-0.186757,-8.830266,-0.000277,0.000290,0.000430,-30.368494,-7.552003,36.284054
0.234644,-0.186757,-8.830266,0.000655,0.000157,0.000297,-30.368494,-7.552003,36.284054
0.234644,-0.186757,-8.830266,0.000655,0.000157,0.000297,-30.368494,-7.552003,36.284054
0.225066,-0.201123,-8.858997,0.001321,-0.001174,-0.000236,-31.083048,-7.552003,34.901806
0.225066,-0.201123,-8.858997,0.001321,-0.001174,-0.000236,-31.083048,-7.552003,34.901806
0.234644,-0.186757,-8.849421,0.000655,-0.000109,-0.000369,-31.083048,-7.552003,34.901806
0.234644,-0.186757,-8.849421,0.000655,-0.000109,-0.000369,-31.083048,-7.552003,34.901806
0.229855,-0.191546,-8.844632,-0.000410,0.000290,0.000430,-31.083048,-7.552003,34.901806
0.229855,-0.191546,-8.844632,-0.000410,0.000290,0.000430,-31.083048,-7.552003,34.901806
0.234644,-0.196335,-8.811111,-0.000277,-0.000109,0.001362,-31.083048,-7.552003,34.901806
0.234644,-0.196335,-8.811111,-0.000277,-0.000109,0.001362,-31.083048,-7.552003,34.901806
0.239432,-0.196335,-8.835054,0.000123,0.000024,0.000963,-31.083048,-7.552003,34.901806
0.229855,-0.177180,-8.830266,0.000788,0.000423,0.000563,-31.083048,-7.552003,34.901806
0.229855,-0.177180,-8.830266,0.000788,0.000423,0.000563,-31.083048,-7.552003,34.901806
0.229855,-0.186757,-8.863787,0.000256,0.000690,0.000164,-31.083048,-7.552003,35.592930
0.229855,-0.186757,-8.863787,0.000256,0.000690,0.000164,-31.083048,-7.552003,35.592930
0.234644,-0.177180,-8.839843,0.000522,0.000024,-0.000502,-31.083048,-7.552003,35.592930
0.234644,-0.177180,-8.839843,0.000522,0.000024,-0.000502,-31.083048,-7.552003,35.592930
0.249010,-0.181969,-8.844632,-0.000011,0.000290,0.000031,-31.083048,-7.552003,35.592930
0.249010,-0.181969,-8.844632,-0.000011,0.000290,0.000031,-31.083048,-7.552003,35.592930
0.234644,-0.181969,-8.825478,-0.000277,0.000024,0.000297,-31.083048,-7.552003,35.592930
0.234644,-0.181969,-8.825478,-0.000277,0.000024,0.000297,-31.083048,-7.552003,35.592930
0.239432,-0.186757,-8.835054,0.000522,0.000823,0.000563,-31.083048,-7.552003,35.592930
0.239432,-0.181969,-8.825478,0.000123,0.000024,-0.000103,-31.083048,-7.552003,35.592930
0.239432,-0.181969,-8.825478,0.000123,0.000024,-0.000103,-31.083048,-7.552003,35.592930
0.234644,-0.196335,-8.825478,0.000788,0.000423,0.000963,-31.261686,-7.012574,34.729023
0.234644,-0.196335,-8.825478,0.000788,0.000423,0.000963,-31.261686,-7.012574,34.729023
0.234644,-0.186757,-8.858997,0.001987,0.000823,-0.000103,-31.261686,-7.012574,34.729023
0.234644,-0.186757,-8.858997,0.001987,0.000823,-0.000103,-31.261686,-7.012574,34.729023
0.239432,-0.177180,-8.849421,0.001055,0.000157,-0.000635,-31.261686,-7.012574,34.729023
0.239432,-0.177180,-8.849421,0.001055,0.000157,-0.000635,-31.261686,-7.012574,34.729023
0.239432,-0.196335,-8.825478,0.000921,0.000290,0.001096,-31.261686,-7.012574,34.729023
0.239432,-0.196335,-8.825478,0.000921,0.000290,0.001096,-31.261686,-7.012574,34.729023
0.239432,-0.177180,-8.854209,0.000788,-0.000509,0.000696,-31.261686,-7.012574,34.729023
0.239432,-0.177180,-8.854209,0.000788,-0.000509,0.000696,-31.261686,-7.012574,34.729023
0.234644,-0.181969,-8.835054,-0.000011,-0.000109,0.000563,-31.261686,-7.012574,34.729023
0.234644,-0.191546,-8.835054,-0.000543,0.000557,0.001229,-31.261686,-7.012574,34.729023
0.234644,-0.191546,-8.835054,-0.000543,0.000557,0.001229,-31.261686,-7.012574,34.729023
0.234644,-0.201123,-8.844632,0.000256,-0.000109,0.001495,-30.547132,-7.731813,35.765713
0.234644,-0.201123,-8.844632,0.000256,-0.000109,0.001495,-30.547132,-7.731813,35.765713
0.239432,-0.196335,-8.835054,0.000123,-0.000242,0.001629,-30.547132,-7.731813,35.765713
0.239432,-0.196335,-8.835054,0.000123,-0.000242,0.001629,-30.547132,-7.731813,35.765713
0.234644,-0.186757,-8.811111,-0.001609,0.000024,0.001362,-30.547132,-7.731813,35.765713
0.234644,-0.186757,-8.811111,-0.001609,0.000024,0.001362,-30.547132,-7.731813,35.765713
0.234644,-0.196335,-8.830266,0.004117,0.001356,0.003493,-30.547132,-7.731813,35.765713
0.234644,-0.196335,-8.830266,0.004117,0.001356,0.003493,-30.547132,-7.731813,35.765713
0.244221,-0.196335,-8.839843,0.005582,0.002021,0.003626,-30.547132,-7.731813,35.765713
0.225066,-0.181969,-8.849421,0.002120,0.000290,0.001362,-30.547132,-7.731813,35.765713
0.225066,-0.181969,-8.849421,0.002120,0.000290,0.001362,-30.547132,-7.731813,35.765713
0.225066,-0.177180,-8.844632,0.001587,-0.000642,0.002161,-30.547132,-8.451051,35.765713
0.225066,-0.177180,-8.844632,0.001587,-0.000642,0.002161,-30.547132,-8.451051,35.765713
0.234644,-0.210700,-8.858997,0.003052,0.000290,0.002428,-30.547132,-8.451051,35.765713
0.234644,-0.210700,-8.858997,0.003052,0.000290,0.002428,-30.547132,-8.451051,35.765713
0.229855,-0.196335,-8.835054,0.003585,0.000290,0.001495,-30.547132,-8.451051,35.765713
0.229855,-0.196335,-8.835054,0.003585,0.000290,0.001495,-30.547132,-8.451051,35.765713
0.220278,-0.196335,-8.820688,0.003452,0.000290,0.001762,-30.547132,-8.451051,35.765713
0.220278,-0.196335,-8.820688,0.003452,0.000290,0.001762,-30.547132,-8.451051,35.765713
0.244221,-0.201123,-8.835054,0.000389,0.000690,0.000297,-30.547132,-8.451051,35.765713
0.244221,-0.201123,-8.835054,0.000389,0.000690,0.000297,-30.547132,-8.451051,35.765713
0.239432,-0.181969,-8.820688,-0.001342,0.000157,0.001229,-30.547132,-8.451051,35.765713
0.239432,-0.186757,-8.835054,-0.000410,0.000157,0.000696,-31.083048,-7.552003,35.592930
0.239432,-0.186757,-8.835054,-0.000410,0.000157,0.000696,-31.083048,-7.552003,35.592930
0.244221,-0.201123,-8.849421,-0.000144,-0.000775,0.001762,-31.083048,-7.552003,35.592930
0.244221,-0.201123,-8.849421,-0.000144,-0.000775,0.001762,-31.083048,-7.552003,35.592930
0.225066,-0.191546,-8.854209,0.001587,-0.000376,0.001362,-31.083048,-7.552003,35.592930
0.225066,-0.191546,-8.854209,0.001587,-0.000376,0.001362,-31.083048,-7.552003,35.592930
0.225066,-0.196335,-8.835054,0.001055,-0.000242,0.001629,-31.083048,-7.552003,35.592930
0.225066,-0.196335,-8.835054,0.001055,-0.000242,0.001629,-31.083048,-7.552003,35.592930
0.234644,-0.191546,-8.830266,-0.000144,-0.000109,0.003093,-31.083048,-7.552003,35.592930
0.234644,-0.191546,-8.830266,-0.000144,-0.000109,0.003093,-31.083048,-7.552003,35.592930
0.234644,-0.191546,-8.811111,0.000256,0.001222,0.006822,-31.083048,-7.552003,35.592930
0.239432,-0.177180,-8.849421,0.003452,0.000423,0.008020,-31.083048,-7.192384,35.247368
0.239432,-0.177180,-8.849421,0.003452,0.000423,0.008020,-31.083048,-7.192384,35.247368
0.253798,-0.191546,-8.801534,-0.004405,-0.001041,0.007088,-31.083048,-7.192384,35.247368
0.253798,-0.191546,-8.801534,-0.004405,-0.001041,0.007088,-31.083048,-7.192384,35.247368
0.244221,-0.225066,-8.887730,-0.001076,0.000423,0.001629,-31.083048,-7.192384,35.247368
0.244221,-0.225066,-8.887730,-0.001076,0.000423,0.001629,-31.083048,-7.192384,35.247368
0.229855,-0.239432,-8.911673,-0.002674,-0.000242,-0.001035,-31.083048,-7.192384,35.247368
0.229855,-0.239432,-8.911673,-0.002674,-0.000242,-0.001035,-31.083048,-7.192384,35.247368
0.239432,-0.220278,-8.897306,-0.001342,0.000823,-0.000502,-31.083048,-7.192384,35.247368
0.239432,-0.220278,-8.897306,-0.001342,0.000823,-0.000502,-31.083048,-7.192384,35.247368
0.225066,-0.191546,-8.815900,-0.003340,-0.000242,0.000164,-31.083048,-7.192384,35.247368
0.225066,-0.191546,-8.815900,-0.003340,-0.000242,0.000164,-31.083048,-7.192384,35.247368
0.229855,-0.191546,-8.835054,-0.001475,-0.000242,0.000164,-29.832581,-7.731813,36.111275
0.239432,-0.181969,-8.849421,-0.002541,-0.000109,0.001229,-29.832581,-7.731813,36.111275
0.239432,-0.181969,-8.849421,-0.002541,-0.000109,0.001229,-29.832581,-7.731813,36.111275
0.244221,-0.186757,-8.835054,-0.004938,0.000157,-0.000502,-29.832581,-7.731813,36.111275
0.244221,-0.186757,-8.835054,-0.004938,0.000157,-0.000502,-29.832581,-7.731813,36.111275
0.225066,-0.196335,-8.844632,-0.007601,-0.001574,-0.000502,-29.832581,-7.731813,36.111275
0.225066,-0.196335,-8.844632,-0.007601,-0.001574,-0.000502,-29.832581,-7.731813,36.111275
0.239432,-0.172391,-8.825478,-0.006136,-0.001041,-0.000635,-29.832581,-7.731813,36.111275
0.239432,-0.172391,-8.825478,-0.006136,-0.001041,-0.000635,-29.832581,-7.731813,36.111275
0.229855,-0.167603,-8.825478,-0.006269,-0.000376,0.000164,-29.832581,-7.731813,36.111275
0.229855,-0.167603,-8.825478,-0.006269,-0.000376,0.000164,-29.832581,-7.731813,36.111275
0.234644,-0.158025,-8.787168,-0.008799,-0.000908,0.000164,-31.440325,-6.832765,36.284054
0.229855,-0.196335,-8.873363,-0.012528,-0.000908,0.000430,-31.440325,-6.832765,36.284054
0.229855,-0.196335,-8.873363,-0.012528,-0.000908,0.000430,-31.440325,-6.832765,36.284054
0.234644,-0.186757,-8.858997,-0.018120,-0.001441,-0.000369,-31.440325,-6.832765,36.284054
0.234644,-0.186757,-8.858997,-0.018120,-0.001441,-0.000369,-31.440325,-6.832765,36.284054
0.239432,-0.158025,-8.777591,-0.031836,-0.000376,0.000963,-31.440325,-6.832765,36.284054
0.239432,-0.158025,-8.777591,-0.031836,-0.000376,0.000963,-31.440325,-6.832765,36.284054
0.229855,-0.158025,-8.882941,-0.031836,-0.000242,0.001096,-31.440325,-6.832765,36.284054
0.229855,-0.158025,-8.882941,-0.031836,-0.000242,0.001096,-31.440325,-6.832765,36.284054
0.229855,-0.177180,-8.858997,-0.043687,-0.001707,0.003360,-31.440325,-6.832765,36.284054
0.229855,-0.177180,-8.858997,-0.043687,-0.001707,0.003360,-31.440325,-6.832765,36.284054
0.220278,-0.181969,-8.954771,-0.062862,-0.001041,0.003493,-31.261686,-7.372194,37.493523
0.220278,-0.181969,-8.954771,-0.062862,-0.001041,0.003493,-31.261686,-7.372194,37.493523
0.239432,-0.129293,-8.916462,-0.129575,-0.000509,0.005890,-31.261686,-7.372194,37.493523
0.239432,-0.090984,-8.806323,-0.180576,-0.000908,0.008020,-31.261686,-7.372194,37.493523
0.239432,-0.090984,-8.806323,-0.180576,-0.000908,0.008020,-31.261686,-7.372194,37.493523
0.234644,-0.028732,-8.811111,-0.158737,-0.001707,0.002694,-31.261686,-7.372194,37.493523
0.234644,-0.028732,-8.811111,-0.158737,-0.001707,0.002694,-31.261686,-7.372194,37.493523
0.249010,-0.009577,-8.777591,-0.116925,-0.002107,0.000164,-31.261686,-7.372194,37.493523
0.249010,-0.009577,-8.777591,-0.116925,-0.002107,0.000164,-31.261686,-7.372194,37.493523
0.239432,-0.047886,-8.926039,-0.100413,-0.001308,0.000031,-31.261686,-7.372194,37.493523
0.239432,-0.047886,-8.926039,-0.100413,-0.001308,0.000031,-31.261686,-7.372194,37.493523
0.258587,-0.043098,-8.993080,-0.144623,0.000024,-0.002633,-31.261686,-7.372194,37.493523
0.258587,-0.043098,-8.993080,-0.144623,0.000024,-0.002633,-31.261686,-7.372194,37.493523
0.220278,0.119716,-8.734493,-0.184704,0.002288,-0.007693,-30.011219,-7.911623,35.592930
0.210700,0.119716,-8.815900,-0.132105,0.001622,-0.000635,-30.011219,-7.911623,35.592930
0.210700,0.119716,-8.815900,-0.132105,0.001622,-0.000635,-30.011219,-7.911623,35.592930
0.249010,0.100562,-8.772802,-0.118124,0.000823,0.017608,-30.011219,-7.911623,35.592930
0.249010,0.100562,-8.772802,-0.118124,0.000823,0.017608,-30.011219,-7.911623,35.592930
0.210700,0.138871,-8.882941,-0.108403,-0.000642,0.024532,-30.011219,-7.911623,35.592930
0.210700,0.138871,-8.882941,-0.108403,-0.000642,0.024532,-30.011219,-7.911623,35.592930
0.239432,0.124505,-8.892518,-0.130374,0.000157,0.028394,-30.011219,-7.911623,35.592930
0.239432,0.124505,-8.892518,-0.130374,0.000157,0.028394,-30.011219,-7.911623,35.592930
0.239432,0.148448,-8.854209,-0.165529,-0.000242,0.029459,-30.011219,-7.911623,35.592930
0.239432,0.148448,-8.854209,-0.165529,-0.000242,0.029459,-30.011219,-7.911623,35.592930
0.239432,0.234644,-8.777591,-0.182973,-0.000642,0.032122,-31.440325,-7.552003,34.210682
0.220278,0.234644,-8.835054,-0.173252,-0.002107,0.032921,-31.440325,-7.552003,34.210682
0.220278,0.234644,-8.835054,-0.173252,-0.002107,0.032921,-31.440325,-7.552003,34.210682
0.229855,0.272953,-8.887730,-0.167526,0.002554,0.035318,-31.440325,-7.552003,34.210682
0.229855,0.272953,-8.887730,-0.167526,0.002554,0.035318,-31.440325,-7.552003,34.210682
0.229855,0.272953,-9.007445,-0.200816,0.002155,0.032522,-31.440325,-7.552003,34.210682
0.229855,0.272953,-9.007445,-0.200816,0.002155,0.032522,-31.440325,-7.552003,34.210682
0.229855,0.392669,-8.935616,-0.276984,0.003486,0.028926,-31.440325,-7.552003,34.210682
0.229855,0.392669,-8.935616,-0.276984,0.003486,0.028926,-31.440325,-7.552003,34.210682
0.229855,0.608158,-8.720127,-0.326120,0.006282,0.029060,-31.440325,-7.552003,34.210682
0.229855,0.608158,-8.720127,-0.326120,0.006282,0.029060,-31.440325,-7.552003,34.210682
0.239432,0.483653,-8.873363,-0.296159,0.002554,0.029858,-30.725771,-9.709719,35.247368
0.239432,0.483653,-8.873363,-0.296159,0.002554,0.029858,-30.725771,-9.709719,35.247368
0.249010,0.498019,-8.993080,-0.305879,0.000690,0.031989,-30.725771,-9.709719,35.247368
0.249010,0.660833,-8.830266,-0.367532,-0.000509,0.026263,-30.725771,-9.709719,35.247368
0.249010,0.660833,-8.830266,-0.367532,-0.000509,0.026263,-30.725771,-9.709719,35.247368
0.210700,0.818859,-8.954771,-0.373525,0.001222,0.024932,-30.725771,-9.709719,35.247368
0.210700,0.818859,-8.954771,-0.373525,0.001222,0.024932,-30.725771,-9.709719,35.247368
0.225066,0.804493,-8.858997,-0.420797,0.002687,0.025198,-30.725771,-9.709719,35.247368
0.225066,0.804493,-8.858997,-0.420797,0.002687,0.025198,-30.725771,-9.709719,35.247368
0.277742,0.790127,-8.892518,-0.477523,-0.003039,0.026663,-30.725771,-9.709719,35.247368
0.277742,0.790127,-8.892518,-0.477523,-0.003039,0.026663,-30.725771,-9.709719,35.247368
0.239432,1.091812,-8.744070,-0.524395,-0.007433,0.029060,-31.083048,-10.069338,33.519554
0.239432,1.091812,-8.744070,-0.524395,-0.007433,0.029060,-31.083048,-10.069338,33.519554
0.277742,1.134909,-8.581256,-0.480186,0.000956,0.026929,-31.083048,-10.069338,33.519554
0.186757,1.063080,-9.002657,-0.419199,-0.000376,0.024266,-31.083048,-10.069338,33.519554
0.186757,1.063080,-9.002657,-0.419199,-0.000376,0.024266,-31.083048,-10.069338,33.519554
0.191546,1.249837,-8.839843,-0.522264,-0.007832,0.057423,-31.083048,-10.069338,33.519554
0.191546,1.249837,-8.839843,-0.522264,-0.007832,0.057423,-31.083048,-10.069338,33.519554
0.311262,1.470115,-8.653086,-0.578858,-0.007566,0.067543,-31.083048,-10.069338,33.519554
0.311262,1.470115,-8.653086,-0.578858,-0.007566,0.067543,-31.083048,-10.069338,33.519554
0.282530,1.427017,-8.820688,-0.561680,-0.005702,0.038913,-31.083048,-10.069338,33.519554
0.282530,1.427017,-8.820688,-0.561680,-0.005702,0.038913,-31.083048,-10.069338,33.519554
0.186757,1.589831,-8.633931,-0.552492,0.003087,0.014012,-30.368494,-10.788576,30.755056
0.186757,1.589831,-8.633931,-0.552492,0.003087,0.014012,-30.368494,-10.788576,30.755056
0.244221,1.680815,-8.519004,-0.512277,0.006948,0.003360,-30.368494,-10.788576,30.755056
0.244221,1.680815,-8.519004,-0.512277,0.006948,0.003360,-30.368494,-10.788576,30.755056
0.234644,1.738279,-8.686606,-0.465139,-0.003571,0.002694,-30.368494,-10.788576,30.755056
0.258587,1.843629,-8.734493,-0.468734,-0.016754,0.013480,-30.368494,-10.788576,30.755056
0.258587,1.843629,-8.734493,-0.468734,-0.016754,0.013480,-30.368494,-10.788576,30.755056
0.210700,1.824475,-8.863787,-0.506152,-0.017154,0.018407,-30.368494,-10.788576,30.755056
0.210700,1.824475,-8.863787,-0.506152,-0.017154,0.018407,-30.368494,-10.788576,30.755056
0.215489,2.150103,-8.935616,-0.625330,-0.018885,0.042642,-30.368494,-10.788576,30.755056
0.215489,2.150103,-8.935616,-0.625330,-0.018885,0.042642,-30.368494,-10.788576,30.755056
0.239432,2.308128,-8.533370,-0.789384,-0.013425,0.054626,-29.475304,-12.406862,29.200026
0.239432,2.308128,-8.533370,-0.789384,-0.013425,0.054626,-29.475304,-12.406862,29.200026
0.292107,2.418267,-8.413653,-0.780728,0.002288,0.046237,-29.475304,-12.406862,29.200026
0.292107,2.418267,-8.413653,-0.780728,0.002288,0.046237,-29.475304,-12.406862,29.200026
0.225066,2.461365,-8.341824,-0.707357,0.001888,0.031456,-29.475304,-12.406862,29.200026
0.234644,2.600235,-8.447174,-0.654892,-0.010229,0.033853,-29.475304,-12.406862,29.200026
0.234644,2.600235,-8.447174,-0.654892,-0.010229,0.033853,-29.475304,-12.406862,29.200026
0.301685,2.772627,-8.437596,-0.660085,-0.015023,0.035584,-29.475304,-12.406862,29.200026
0.301685,2.772627,-8.437596,-0.660085,-0.015023,0.035584,-29.475304,-12.406862,29.200026
0.244221,2.810936,-8.586045,-0.687782,-0.014224,0.029592,-29.475304,-12.406862,29.200026
0.244221,2.810936,-8.586045,-0.687782,-0.014224,0.029592,-29.475304,-12.406862,29.200026
0.210700,2.968961,-8.293938,-0.763284,-0.022214,0.028527,-29.475304,-12.406862,29.200026
0.210700,2.968961,-8.293938,-0.763284,-0.022214,0.028527,-29.475304,-12.406862,29.200026
0.181969,3.117409,-8.327457,-0.743976,-0.020483,0.036383,-30.725771,-15.463626,27.299433
0.181969,3.117409,-8.327457,-0.743976,-0.020483,0.036383,-30.725771,-15.463626,27.299433
0.229855,3.227548,-8.078448,-0.714814,-0.014224,0.041577,-30.725771,-15.463626,27.299433
0.229855,3.227548,-8.078448,-0.714814,-0.014224,0.041577,-30.725771,-15.463626,27.299433
0.249010,3.399940,-8.078448,-0.622667,-0.007832,0.034120,-30.725771,-15.463626,27.299433
0.225066,3.481347,-8.097603,-0.535048,-0.004503,0.029326,-30.725771,-15.463626,27.299433
0.225066,3.481347,-8.097603,-0.535048,-0.004503,0.029326,-30.725771,-15.463626,27.299433
0.244221,3.586697,-8.236473,-0.487377,-0.009297,0.025065,-30.725771,-15.463626,27.299433
0.244221,3.586697,-8.236473,-0.487377,-0.009297,0.025065,-30.725771,-15.463626,27.299433
0.220278,3.725568,-8.217319,-0.553024,-0.017021,0.025731,-30.725771,-15.463626,27.299433
0.220278,3.725568,-8.217319,-0.553024,-0.017021,0.025731,-30.725771,-15.463626,27.299433
0.277742,3.888382,-7.982675,-0.618273,-0.016222,0.023733,-29.832581,-14.204958,24.707714
0.277742,3.888382,-7.982675,-0.618273,-0.016222,0.023733,-29.832581,-14.204958,24.707714
0.253798,3.979366,-7.963521,-0.610816,-0.003705,0.013613,-29.832581,-14.204958,24.707714
0.253798,3.979366,-7.963521,-0.610816,-0.003705,0.013613,-29.832581,-14.204958,24.707714
0.220278,4.070350,-7.997041,-0.622934,-0.001174,0.003226,-29.832581,-14.204958,24.707714
0.249010,4.214010,-7.623527,-0.640377,-0.006368,-0.009024,-29.832581,-14.204958,24.707714
0.249010,4.214010,-7.623527,-0.640377,-0.006368,-0.009024,-29.832581,-14.204958,24.707714
0.225066,4.199644,-7.805495,-0.531053,0.002421,-0.017147,-29.832581,-14.204958,24.707714
0.225066,4.199644,-7.805495,-0.531053,0.002421,-0.017147,-29.832581,-14.204958,24.707714
0.210700,4.328937,-8.049716,-0.487243,0.001622,-0.004230,-29.832581,-14.204958,24.707714
0.210700,4.328937,-8.049716,-0.487243,0.001622,-0.004230,-29.832581,-14.204958,24.707714
0.158025,4.549215,-7.771975,-0.638114,-0.017287,0.009352,-30.368494,-14.744388,19.697058
0.158025,4.549215,-7.771975,-0.638114,-0.017287,0.009352,-30.368494,-14.744388,19.697058
0.220278,4.625834,-7.609161,-0.703362,-0.021148,0.018806,-30.368494,-14.744388,19.697058
0.220278,4.625834,-7.609161,-0.703362,-0.021148,0.018806,-30.368494,-14.744388,19.697058
0.186757,4.659354,-7.676202,-0.659286,-0.016088,0.022801,-30.368494,-14.744388,19.697058
0.186757,4.659354,-7.676202,-0.659286,-0.016088,0.022801,-30.368494,-14.744388,19.697058
0.181969,4.764704,-7.613949,-0.663680,-0.014357,0.033454,-30.368494,-14.744388,19.697058
0.277742,4.927518,-7.317053,-0.668341,-0.011428,0.044506,-30.368494,-14.744388,19.697058
0.277742,4.927518,-7.317053,-0.668341,-0.011428,0.044506,-30.368494,-14.744388,19.697058
0.215489,4.865266,-7.441558,-0.616941,-0.014757,0.026796,-30.368494,-14.744388,19.697058
0.215489,4.865266,-7.441558,-0.616941,-0.014757,0.026796,-30.368494,-14.744388,19.697058
0.205912,5.090332,-7.465501,-0.627328,-0.031535,0.014146,-29.296665,-17.261723,20.042622
0.205912,5.090332,-7.465501,-0.627328,-0.031535,0.014146,-29.296665,-17.261723,20.042622
0.201123,5.281878,-7.240435,-0.716012,-0.041389,-0.007693,-29.296665,-17.261723,20.042622
0.201123,5.281878,-7.240435,-0.716012,-0.041389,-0.007693,-29.296665,-17.261723,20.042622
0.210700,5.348919,-7.010580,-0.684320,-0.029538,-0.017147,-29.296665,-17.261723,20.042622
0.210700,5.348919,-7.010580,-0.684320,-0.029538,-0.017147,-29.296665,-17.261723,20.042622
0.239432,5.406383,-7.178183,-0.522398,-0.003438,-0.010356,-29.296665,-17.261723,20.042622
0.282530,5.487790,-7.091987,-0.482849,0.010144,-0.007027,-29.296665,-17.261723,20.042622
0.282530,5.487790,-7.091987,-0.482849,0.010144,-0.007027,-29.296665,-17.261723,20.042622
0.225066,5.550042,-6.981848,-0.464074,0.026523,-0.017946,-29.296665,-17.261723,20.042622
0.225066,5.550042,-6.981848,-0.464074,0.026523,-0.017946,-29.296665,-17.261723,20.042622
0.225066,5.588352,-7.087198,-0.414272,0.026922,-0.018479,-28.939388,-17.261723,15.895872
0.225066,5.588352,-7.087198,-0.414272,0.026922,-0.018479,-28.939388,-17.261723,15.895872
0.282530,5.660181,-6.977059,-0.415603,0.015337,-0.014218,-28.939388,-17.261723,15.895872
0.282530,5.660181,-6.977059,-0.415603,0.015337,-0.014218,-28.939388,-17.261723,15.895872
0.239432,5.775109,-6.938750,-0.427588,0.009079,-0.030596,-28.939388,-17.261723,15.895872
0.239432,5.775109,-6.938750,-0.427588,0.009079,-0.030596,-28.939388,-17.261723,15.895872
0.162814,5.875670,-6.996214,-0.494168,0.001622,-0.041116,-28.939388,-17.261723,15.895872
0.162814,5.875670,-6.996214,-0.494168,0.001622,-0.041116,-28.939388,-17.261723,15.895872
0.205912,6.028907,-6.862132,-0.613612,-0.008498,-0.036855,-28.939388,-17.261723,15.895872
0.162814,6.091159,-6.656220,-0.708689,-0.007167,-0.031795,-28.939388,-17.261723,15.895872
0.162814,6.091159,-6.656220,-0.708689,-0.007167,-0.031795,-28.939388,-17.261723,15.895872
0.196335,6.129469,-6.546081,-0.677795,0.004019,-0.022340,-28.403475,-17.441532,14.340840
0.196335,6.129469,-6.546081,-0.677795,0.004019,-0.022340,-28.403475,-17.441532,14.340840
0.186757,6.148623,-6.459885,-0.580722,0.012008,-0.013152,-28.403475,-17.441532,14.340840
0.186757,6.148623,-6.459885,-0.580722,0.012008,-0.013152,-28.403475,-17.441532,14.340840
0.201123,6.349746,-6.617911,-0.506019,0.008413,-0.003964,-28.403475,-17.441532,14.340840
0.201123,6.349746,-6.617911,-0.506019,0.008413,-0.003964,-28.403475,-17.441532,14.340840
0.186757,6.493406,-6.479040,-0.601095,-0.002506,-0.004497,-28.403475,-17.441532,14.340840
0.186757,6.493406,-6.479040,-0.601095,-0.002506,-0.004497,-28.403475,-17.441532,14.340840
0.191546,6.598756,-6.316226,-0.731858,-0.005169,-0.015016,-28.403475,-17.441532,14.340840
0.138871,6.579602,-6.234819,-0.800835,-0.002373,-0.017547,-28.403475,-17.441532,14.340840
0.138871,6.579602,-6.234819,-0.800835,-0.002373,-0.017547,-28.403475,-17.441532,14.340840
0.158025,6.622699,-6.081582,-0.742778,-0.004637,-0.004896,-28.403475,-17.441532,14.340840
0.158025,6.622699,-6.081582,-0.742778,-0.004637,-0.004896,-28.403475,-17.441532,14.340840
0.167603,6.751993,-6.048062,-0.662882,-0.012360,0.010817,-29.475304,-17.801151,11.230779
0.167603,6.751993,-6.048062,-0.662882,-0.012360,0.010817,-29.475304,-17.801151,11.230779
0.205912,6.799880,-5.937923,-0.609751,-0.014224,0.019339,-29.475304,-17.801151,11.230779
0.205912,6.799880,-5.937923,-0.609751,-0.014224,0.019339,-29.475304,-17.801151,11.230779
0.191546,6.914807,-5.894825,-0.547432,-0.023812,0.009618,-29.475304,-17.801151,11.230779
0.191546,6.914807,-5.894825,-0.547432,-0.023812,0.009618,-29.475304,-17.801151,11.230779
0.186757,7.044100,-5.842150,-0.536113,-0.031801,-0.000635,-29.475304,-17.801151,11.230779
0.186757,7.044100,-5.842150,-0.536113,-0.031801,-0.000635,-29.475304,-17.801151,11.230779
0.153237,7.154239,-5.808630,-0.542771,-0.011028,-0.007160,-29.475304,-17.801151,11.230779
0.158025,7.345785,-5.583563,-0.645304,-0.003838,-0.007693,-29.475304,-17.801151,11.230779
0.158025,7.345785,-5.583563,-0.645304,-0.003838,-0.007693,-29.475304,-17.801151,11.230779
0.167603,7.355362,-5.392017,-0.746240,-0.005436,-0.005962,-27.331646,-17.081911,7.084030
0.167603,7.355362,-5.392017,-0.746240,-0.005436,-0.005962,-27.331646,-17.081911,7.084030
0.153237,7.441558,-5.401594,-0.750235,-0.007566,-0.005429,-27.331646,-17.081911,7.084030
0.153237,7.441558,-5.401594,-0.750235,-0.007566,-0.005429,-27.331646,-17.081911,7.084030
0.220278,7.537331,-5.176528,-0.790848,-0.008365,-0.000236,-27.331646,-17.081911,7.084030
0.220278,7.537331,-5.176528,-0.790848,-0.008365,-0.000236,-27.331646,-17.081911,7.084030
0.201123,7.570851,-5.071177,-0.767013,-0.003971,-0.005296,-27.331646,-17.081911,7.084030
0.201123,7.570851,-5.071177,-0.767013,-0.003971,-0.005296,-27.331646,-17.081911,7.084030
0.153237,7.666625,-5.085544,-0.663148,-0.003571,-0.007559,-27.331646,-17.081911,7.084030
0.119716,7.882113,-5.104698,-0.683788,-0.006101,-0.009291,-27.331646,-17.081911,7.084030
0.119716,7.882113,-5.104698,-0.683788,-0.006101,-0.009291,-27.331646,-17.081911,7.084030
0.239432,7.934789,-4.764704,-0.902969,-0.001840,-0.013019,-29.296665,-19.779057,4.837874
0.239432,7.934789,-4.764704,-0.902969,-0.001840,-0.013019,-29.296665,-19.779057,4.837874
0.181969,8.016195,-4.573158,-1.020416,0.013873,-0.024471,-29.296665,-19.779057,4.837874
0.181969,8.016195,-4.573158,-1.020416,0.013873,-0.024471,-29.296665,-19.779057,4.837874
0.167603,8.126334,-4.448653,-1.068354,0.024126,-0.029930,-29.296665,-19.779057,4.837874
0.167603,8.126334,-4.448653,-1.068354,0.024126,-0.029930,-29.296665,-19.779057,4.837874
0.158025,8.011407,-4.185278,-1.084733,0.029452,-0.031395,-29.296665,-19.779057,4.837874
0.158025,8.011407,-4.185278,-1.084733,0.029452,-0.031395,-29.296665,-19.779057,4.837874
0.186757,8.102391,-4.146969,-0.746906,0.022794,-0.026601,-29.296665,-19.779057,4.837874
0.172391,8.159855,-4.170912,-0.334908,0.009878,-0.012087,-29.296665,-19.779057,4.837874
0.172391,8.159855,-4.170912,-0.334908,0.009878,-0.012087,-29.296665,-19.779057,4.837874
0.153237,8.365767,-4.146969,-0.070719,-0.006900,0.003226,-27.510284,-16.182863,1.036687
0.153237,8.365767,-4.146969,-0.070719,-0.006900,0.003226,-27.510284,-16.182863,1.036687
0.138871,8.370556,-4.046407,-0.030504,-0.010762,0.006156,-27.510284,-16.182863,1.036687
0.138871,8.370556,-4.046407,-0.030504,-0.010762,0.006156,-27.510284,-16.182863,1.036687
0.071830,8.365767,-4.127814,-0.021982,-0.011028,0.005623,-27.510284,-16.182863,1.036687
0.071830,8.365767,-4.127814,-0.021982,-0.011028,0.005623,-27.510284,-16.182863,1.036687
0.129293,8.418442,-4.108659,-0.072183,-0.012626,0.006689,-27.510284,-16.182863,1.036687
0.129293,8.418442,-4.108659,-0.072183,-0.012626,0.006689,-27.510284,-16.182863,1.036687
0.153237,8.428020,-4.022464,-0.148617,-0.014091,0.004824,-27.510284,-16.182863,1.036687
0.153237,8.428020,-4.022464,-0.148617,-0.014091,0.004824,-27.510284,-16.182863,1.036687
0.110139,8.456751,-4.051196,-0.254746,-0.009564,0.000563,-27.510284,-16.182863,1.036687
0.191546,8.432808,-3.912325,-0.356480,-0.001174,-0.003432,-28.403475,-17.441532,-0.172781
0.191546,8.432808,-3.912325,-0.356480,-0.001174,-0.003432,-28.403475,-17.441532,-0.172781
0.153237,8.528581,-3.811763,-0.341566,0.010410,-0.011421,-28.403475,-17.441532,-0.172781
0.153237,8.528581,-3.811763,-0.341566,0.010410,-0.011421,-28.403475,-17.441532,-0.172781
0.124505,8.552525,-3.854861,-0.371394,0.010810,-0.010489,-28.403475,-17.441532,-0.172781
0.124505,8.552525,-3.854861,-0.371394,0.010810,-0.010489,-28.403475,-17.441532,-0.172781
0.138871,8.514215,-3.763877,-0.484847,0.014938,-0.012220,-28.403475,-17.441532,-0.172781
0.138871,8.514215,-3.763877,-0.484847,0.014938,-0.012220,-28.403475,-17.441532,-0.172781
0.081407,8.648297,-3.692047,-0.492703,0.013207,-0.012886,-28.403475,-17.441532,-0.172781
0.081407,8.648297,-3.692047,-0.492703,0.013207,-0.012886,-28.403475,-17.441532,-0.172781
0.124505,8.710549,-3.490924,-0.651829,0.014006,-0.014883,-28.403475,-17.441532,-0.172781
0.196335,8.691395,-3.428672,-0.778997,0.013340,-0.017280,-26.974369,-16.003054,-2.591718
0.196335,8.691395,-3.428672,-0.778997,0.013340,-0.017280,-26.974369,-16.003054,-2.591718
0.220278,8.696184,-3.299378,-0.650364,0.014672,-0.015416,-26.974369,-16.003054,-2.591718
0.220278,8.696184,-3.299378,-0.650364,0.014672,-0.015416,-26.974369,-16.003054,-2.591718
0.191546,8.710549,-3.328110,-0.426789,0.011609,-0.008625,-26.974369,-16.003054,-2.591718
0.191546,8.710549,-3.328110,-0.426789,0.011609,-0.008625,-26.974369,-16.003054,-2.591718
0.124505,8.863787,-3.174873,-0.242895,-0.009430,0.002694,-26.974369,-16.003054,-2.591718
0.124505,8.863787,-3.174873,-0.242895,-0.009430,0.002694,-26.974369,-16.003054,-2.591718
